subj,phase,trial,stim,stim_type,f1,f2,c,resp,corr,rt,f1_is,e_is
x101,learn,1,L6,learn,0.62,-1.07384,0,0,1,1.370805,angle,0
x101,learn,2,L8,learn,1.84,0,0,1,0,2.21462,angle,0
x101,learn,3,L7,learn,-0.10352,0.38636,1,0,0,0.900175,angle,0
x101,learn,4,L25,learn,-1.07384,-0.62,0,0,1,0.765445,angle,0
x101,learn,5,L18,learn,-0.38636,0.10352,1,1,1,1.434245,angle,0
x101,learn,6,L28,learn,-0.64,0,1,1,1,1.10233,angle,0
x101,learn,7,L30,learn,0,-1.84,0,0,1,0.669275,angle,0
x101,learn,8,L23,learn,1.301064,1.301064,0,1,0,0.796505,angle,0
x101,learn,9,L3,learn,0.62,1.07384,0,1,0,1.20357,angle,0
x101,learn,10,L17,learn,-0.452544,-0.452544,1,0,0,1.806235,angle,0
x101,learn,11,L16,learn,0,0.64,1,1,1,4.337,angle,0
x101,learn,12,L22,learn,1.07384,-0.62,0,0,1,1.50364,angle,0
x101,learn,13,L31,learn,0.38636,-0.10352,1,1,1,1.086865,angle,0
x101,learn,14,L20,learn,0.10352,0.38636,1,1,1,1.921065,angle,0
x101,learn,15,L13,learn,-0.62,-1.07384,0,0,1,0.9167,angle,0
x101,learn,16,L29,learn,-1.84,0,0,1,0,0.86797,angle,0
x101,learn,17,L12,learn,0.452544,-0.452544,1,1,1,2.4585,angle,0
x101,learn,18,L14,learn,0.38636,0.10352,1,1,1,1.11953,angle,0
x101,learn,19,L5,learn,1.07384,0.62,0,1,0,1.23484,angle,0
x101,learn,20,L24,learn,-0.62,1.07384,0,1,0,3.212765,angle,0
x101,learn,21,L32,learn,0.10352,-0.38636,1,0,0,1.569215,angle,0
x101,learn,22,L10,learn,0,1.84,0,1,0,4.6128,angle,0
x101,learn,23,L15,learn,-1.301064,1.301064,0,1,0,3.414205,angle,0
x101,learn,24,L9,learn,0,-0.64,1,0,0,0.75396,angle,0
x101,learn,25,L26,learn,-1.07384,0.62,0,0,1,4.380015,angle,0
x101,learn,26,L4,learn,-0.452544,0.452544,1,0,0,1.13727,angle,0
x101,learn,27,L11,learn,0.64,0,1,0,0,1.352555,angle,0
x101,learn,28,L1,learn,-0.38636,-0.10352,1,1,1,1.457495,angle,0
x101,learn,29,L19,learn,-0.10352,-0.38636,1,1,1,1.332875,angle,0
x101,learn,30,L2,learn,0.452544,0.452544,1,1,1,1.903965,angle,0
x101,learn,31,L27,learn,1.301064,-1.301064,0,0,1,0.816485,angle,0
x101,learn,32,L21,learn,-1.301064,-1.301064,0,0,1,0.617545,angle,0
x101,learn,33,L29,learn,-1.84,0,0,1,0,0.955615,angle,0
x101,learn,34,L27,learn,1.301064,-1.301064,0,0,1,1.889315,angle,0
x101,learn,35,L28,learn,-0.64,0,1,1,1,1.24969,angle,0
x101,learn,36,L4,learn,-0.452544,0.452544,1,1,1,0.950245,angle,0
x101,learn,37,L20,learn,0.10352,0.38636,1,1,1,1.038065,angle,0
x101,learn,38,L30,learn,0,-1.84,0,0,1,0.668605,angle,0
x101,learn,39,L17,learn,-0.452544,-0.452544,1,1,1,1.95896,angle,0
x101,learn,40,L32,learn,0.10352,-0.38636,1,1,1,0.87278,angle,0
x101,learn,41,L9,learn,0,-0.64,1,1,1,0.834375,angle,0
x101,learn,42,L13,learn,-0.62,-1.07384,0,0,1,1.15414,angle,0
x101,learn,43,L1,learn,-0.38636,-0.10352,1,1,1,0.70152,angle,0
x101,learn,44,L18,learn,-0.38636,0.10352,1,1,1,1.054365,angle,0
x101,learn,45,L5,learn,1.07384,0.62,0,0,1,2.638515,angle,0
x101,learn,46,L21,learn,-1.301064,-1.301064,0,0,1,0.70109,angle,0
x101,learn,47,L26,learn,-1.07384,0.62,0,0,1,0.879195,angle,0
x101,learn,48,L19,learn,-0.10352,-0.38636,1,1,1,0.78682,angle,0
x101,learn,49,L8,learn,1.84,0,0,1,0,0.90632,angle,0
x101,learn,50,L23,learn,1.301064,1.301064,0,0,1,1.063975,angle,0
x101,learn,51,L25,learn,-1.07384,-0.62,0,1,0,1.454165,angle,0
x101,learn,52,L31,learn,0.38636,-0.10352,1,1,1,1.55411,angle,0
x101,learn,53,L16,learn,0,0.64,1,0,0,2.074855,angle,0
x101,learn,54,L22,learn,1.07384,-0.62,0,1,0,2.56886,angle,0
x101,learn,55,L14,learn,0.38636,0.10352,1,1,1,0.96806,angle,0
x101,learn,56,L10,learn,0,1.84,0,0,1,0.907725,angle,0
x101,learn,57,L15,learn,-1.301064,1.301064,0,0,1,0.75189,angle,0
x101,learn,58,L2,learn,0.452544,0.452544,1,1,1,0.753095,angle,0
x101,learn,59,L24,learn,-0.62,1.07384,0,0,1,2.309835,angle,0
x101,learn,60,L11,learn,0.64,0,1,1,1,0.835585,angle,0
x101,learn,61,L6,learn,0.62,-1.07384,0,0,1,0.64599,angle,0
x101,learn,62,L3,learn,0.62,1.07384,0,1,0,0.9045,angle,0
x101,learn,63,L12,learn,0.452544,-0.452544,1,1,1,1.123125,angle,0
x101,learn,64,L7,learn,-0.10352,0.38636,1,0,0,1.320675,angle,0
x101,learn,65,L26,learn,-1.07384,0.62,0,0,1,3.434505,angle,0
x101,learn,66,L18,learn,-0.38636,0.10352,1,0,0,5.895755,angle,0
x101,learn,67,L16,learn,0,0.64,1,1,1,6.225645,angle,0
x101,learn,68,L2,learn,0.452544,0.452544,1,1,1,1.42312,angle,0
x101,learn,69,L14,learn,0.38636,0.10352,1,1,1,0.640855,angle,0
x101,learn,70,L29,learn,-1.84,0,0,1,0,1.222585,angle,0
x101,learn,71,L7,learn,-0.10352,0.38636,1,0,0,5.54498,angle,0
x101,learn,72,L13,learn,-0.62,-1.07384,0,0,1,0.819895,angle,0
x101,learn,73,L23,learn,1.301064,1.301064,0,0,1,2.0252,angle,0
x101,learn,74,L30,learn,0,-1.84,0,0,1,0.679395,angle,0
x101,learn,75,L32,learn,0.10352,-0.38636,1,0,0,0.7861,angle,0
x101,learn,76,L10,learn,0,1.84,0,0,1,0.85665,angle,0
x101,learn,77,L4,learn,-0.452544,0.452544,1,1,1,1.10483,angle,0
x101,learn,78,L31,learn,0.38636,-0.10352,1,1,1,0.71991,angle,0
x101,learn,79,L11,learn,0.64,0,1,1,1,0.468835,angle,0
x101,learn,80,L9,learn,0,-0.64,1,1,1,0.87077,angle,0
x101,learn,81,L1,learn,-0.38636,-0.10352,1,1,1,0.768165,angle,0
x101,learn,82,L15,learn,-1.301064,1.301064,0,0,1,1.97654,angle,0
x101,learn,83,L28,learn,-0.64,0,1,1,1,1.77307,angle,0
x101,learn,84,L24,learn,-0.62,1.07384,0,0,1,1.30882,angle,0
x101,learn,85,L21,learn,-1.301064,-1.301064,0,0,1,0.654095,angle,0
x101,learn,86,L20,learn,0.10352,0.38636,1,1,1,1.187435,angle,0
x101,learn,87,L25,learn,-1.07384,-0.62,0,1,0,1.15556,angle,0
x101,learn,88,L3,learn,0.62,1.07384,0,0,1,0.970575,angle,0
x101,learn,89,L5,learn,1.07384,0.62,0,0,1,3.216045,angle,0
x101,learn,90,L6,learn,0.62,-1.07384,0,0,1,0.71899,angle,0
x101,learn,91,L8,learn,1.84,0,0,0,1,0.552755,angle,0
x101,learn,92,L19,learn,-0.10352,-0.38636,1,1,1,0.954405,angle,0
x101,learn,93,L17,learn,-0.452544,-0.452544,1,0,0,1.69179,angle,0
x101,learn,94,L22,learn,1.07384,-0.62,0,0,1,1.077105,angle,0
x101,learn,95,L12,learn,0.452544,-0.452544,1,0,0,0.83807,angle,0
x101,learn,96,L27,learn,1.301064,-1.301064,0,0,1,0.652605,angle,0
x101,learn,97,L6,learn,0.62,-1.07384,0,0,1,2.46347,angle,0
x101,learn,98,L31,learn,0.38636,-0.10352,1,1,1,1.086985,angle,0
x101,learn,99,L21,learn,-1.301064,-1.301064,0,0,1,0.82191,angle,0
x101,learn,100,L16,learn,0,0.64,1,0,0,6.364765,angle,0
x101,learn,101,L7,learn,-0.10352,0.38636,1,1,1,3.316565,angle,0
x101,learn,102,L9,learn,0,-0.64,1,0,0,1.692755,angle,0
x101,learn,103,L26,learn,-1.07384,0.62,0,0,1,1.689425,angle,0
x101,learn,104,L1,learn,-0.38636,-0.10352,1,1,1,1.084875,angle,0
x101,learn,105,L3,learn,0.62,1.07384,0,0,1,0.819705,angle,0
x101,learn,106,L10,learn,0,1.84,0,0,1,0.634935,angle,0
x101,learn,107,L4,learn,-0.452544,0.452544,1,1,1,1.12281,angle,0
x101,learn,108,L28,learn,-0.64,0,1,1,1,1.17227,angle,0
x101,learn,109,L11,learn,0.64,0,1,1,1,0.819635,angle,0
x101,learn,110,L15,learn,-1.301064,1.301064,0,0,1,0.902155,angle,0
x101,learn,111,L17,learn,-0.452544,-0.452544,1,0,0,1.67562,angle,0
x101,learn,112,L13,learn,-0.62,-1.07384,0,0,1,0.657195,angle,0
x101,learn,113,L32,learn,0.10352,-0.38636,1,1,1,1.66383,angle,0
x101,learn,114,L8,learn,1.84,0,0,1,0,1.30699,angle,0
x101,learn,115,L5,learn,1.07384,0.62,0,0,1,1.048095,angle,0
x101,learn,116,L22,learn,1.07384,-0.62,0,0,1,3.11569,angle,0
x101,learn,117,L25,learn,-1.07384,-0.62,0,0,1,1.05401,angle,0
x101,learn,118,L20,learn,0.10352,0.38636,1,1,1,0.713665,angle,0
x101,learn,119,L2,learn,0.452544,0.452544,1,1,1,0.57061,angle,0
x101,learn,120,L14,learn,0.38636,0.10352,1,1,1,0.871495,angle,0
x101,learn,121,L18,learn,-0.38636,0.10352,1,1,1,1.423815,angle,0
x101,learn,122,L29,learn,-1.84,0,0,1,0,0.80596,angle,0
x101,learn,123,L27,learn,1.301064,-1.301064,0,0,1,0.683815,angle,0
x101,learn,124,L24,learn,-0.62,1.07384,0,0,1,0.89176,angle,0
x101,learn,125,L23,learn,1.301064,1.301064,0,0,1,0.584685,angle,0
x101,learn,126,L19,learn,-0.10352,-0.38636,1,1,1,1.23734,angle,0
x101,learn,127,L12,learn,0.452544,-0.452544,1,1,1,0.69871,angle,0
x101,learn,128,L30,learn,0,-1.84,0,0,1,0.884965,angle,0
x101,learn,129,L10,learn,0,1.84,0,0,1,0.905175,angle,0
x101,learn,130,L3,learn,0.62,1.07384,0,0,1,1.54441,angle,0
x101,learn,131,L32,learn,0.10352,-0.38636,1,1,1,2.66317,angle,0
x101,learn,132,L25,learn,-1.07384,-0.62,0,1,0,1.204645,angle,0
x101,learn,133,L15,learn,-1.301064,1.301064,0,0,1,0.82127,angle,0
x101,learn,134,L9,learn,0,-0.64,1,0,0,2.158015,angle,0
x101,learn,135,L24,learn,-0.62,1.07384,0,0,1,1.62755,angle,0
x101,learn,136,L28,learn,-0.64,0,1,1,1,1.126855,angle,0
x101,learn,137,L30,learn,0,-1.84,0,0,1,0.719785,angle,0
x101,learn,138,L4,learn,-0.452544,0.452544,1,1,1,1.04068,angle,0
x101,learn,139,L21,learn,-1.301064,-1.301064,0,0,1,0.76975,angle,0
x101,learn,140,L26,learn,-1.07384,0.62,0,0,1,1.87962,angle,0
x101,learn,141,L17,learn,-0.452544,-0.452544,1,1,1,1.0775,angle,0
x101,learn,142,L6,learn,0.62,-1.07384,0,0,1,1.289365,angle,0
x101,learn,143,L19,learn,-0.10352,-0.38636,1,1,1,1.28838,angle,0
x101,learn,144,L23,learn,1.301064,1.301064,0,0,1,1.56136,angle,0
x101,learn,145,L29,learn,-1.84,0,0,1,0,2.22851,angle,0
x101,learn,146,L18,learn,-0.38636,0.10352,1,1,1,1.20414,angle,0
x101,learn,147,L16,learn,0,0.64,1,0,0,1.07116,angle,0
x101,learn,148,L27,learn,1.301064,-1.301064,0,0,1,1.12747,angle,0
x101,learn,149,L1,learn,-0.38636,-0.10352,1,1,1,1.406465,angle,0
x101,learn,150,L14,learn,0.38636,0.10352,1,1,1,0.55377,angle,0
x101,learn,151,L12,learn,0.452544,-0.452544,1,1,1,1.45817,angle,0
x101,learn,152,L11,learn,0.64,0,1,1,1,2.012935,angle,0
x101,learn,153,L8,learn,1.84,0,0,1,0,2.723795,angle,0
x101,learn,154,L7,learn,-0.10352,0.38636,1,1,1,2.093925,angle,0
x101,learn,155,L22,learn,1.07384,-0.62,0,0,1,0.904745,angle,0
x101,learn,156,L20,learn,0.10352,0.38636,1,1,1,1.19993,angle,0
x101,learn,157,L31,learn,0.38636,-0.10352,1,1,1,1.12355,angle,0
x101,learn,158,L2,learn,0.452544,0.452544,1,1,1,1.10601,angle,0
x101,learn,159,L5,learn,1.07384,0.62,0,1,0,1.436305,angle,0
x101,learn,160,L13,learn,-0.62,-1.07384,0,0,1,0.804235,angle,0
x101,learn,161,L11,learn,0.64,0,1,1,1,2.76263,angle,0
x101,learn,162,L2,learn,0.452544,0.452544,1,0,0,1.18849,angle,0
x101,learn,163,L20,learn,0.10352,0.38636,1,1,1,1.039365,angle,0
x101,learn,164,L24,learn,-0.62,1.07384,0,0,1,0.77061,angle,0
x101,learn,165,L4,learn,-0.452544,0.452544,1,1,1,1.873815,angle,0
x101,learn,166,L16,learn,0,0.64,1,0,0,1.688545,angle,0
x101,learn,167,L9,learn,0,-0.64,1,1,1,1.79292,angle,0
x101,learn,168,L29,learn,-1.84,0,0,1,0,1.187765,angle,0
x101,learn,169,L21,learn,-1.301064,-1.301064,0,0,1,0.770175,angle,0
x101,learn,170,L13,learn,-0.62,-1.07384,0,0,1,0.764235,angle,0
x101,learn,171,L17,learn,-0.452544,-0.452544,1,1,1,1.222525,angle,0
x101,learn,172,L32,learn,0.10352,-0.38636,1,1,1,1.277445,angle,0
x101,learn,173,L31,learn,0.38636,-0.10352,1,1,1,0.850445,angle,0
x101,learn,174,L6,learn,0.62,-1.07384,0,0,1,0.905495,angle,0
x101,learn,175,L5,learn,1.07384,0.62,0,0,1,1.626825,angle,0
x101,learn,176,L28,learn,-0.64,0,1,1,1,0.854595,angle,0
x101,learn,177,L12,learn,0.452544,-0.452544,1,1,1,1.475845,angle,0
x101,learn,178,L26,learn,-1.07384,0.62,0,0,1,1.473515,angle,0
x101,learn,179,L18,learn,-0.38636,0.10352,1,1,1,1.123085,angle,0
x101,learn,180,L3,learn,0.62,1.07384,0,0,1,1.10437,angle,0
x101,learn,181,L8,learn,1.84,0,0,1,0,4.723745,angle,0
x101,learn,182,L27,learn,1.301064,-1.301064,0,0,1,0.853225,angle,0
x101,learn,183,L23,learn,1.301064,1.301064,0,0,1,1.050365,angle,0
x101,learn,184,L7,learn,-0.10352,0.38636,1,1,1,0.753865,angle,0
x101,learn,185,L1,learn,-0.38636,-0.10352,1,1,1,1.457705,angle,0
x101,learn,186,L10,learn,0,1.84,0,0,1,0.80373,angle,0
x101,learn,187,L25,learn,-1.07384,-0.62,0,1,0,1.25807,angle,0
x101,learn,188,L14,learn,0.38636,0.10352,1,1,1,3.583865,angle,0
x101,learn,189,L30,learn,0,-1.84,0,0,1,1.022685,angle,0
x101,learn,190,L15,learn,-1.301064,1.301064,0,0,1,1.975065,angle,0
x101,learn,191,L19,learn,-0.10352,-0.38636,1,1,1,2.32606,angle,0
x101,learn,192,L22,learn,1.07384,-0.62,0,1,0,0.690745,angle,0
x101,learn,193,L27,learn,1.301064,-1.301064,0,0,1,1.089015,angle,0
x101,learn,194,L23,learn,1.301064,1.301064,0,0,1,0.9794,angle,0
x101,learn,195,L29,learn,-1.84,0,0,0,1,6.565835,angle,0
x101,learn,196,L32,learn,0.10352,-0.38636,1,1,1,0.99635,angle,0
x101,learn,197,L1,learn,-0.38636,-0.10352,1,1,1,0.904605,angle,0
x101,learn,198,L24,learn,-0.62,1.07384,0,0,1,0.652695,angle,0
x101,learn,199,L7,learn,-0.10352,0.38636,1,0,0,1.7373,angle,0
x101,learn,200,L8,learn,1.84,0,0,1,0,1.258845,angle,0
x101,learn,201,L15,learn,-1.301064,1.301064,0,0,1,3.89083,angle,0
x101,learn,202,L14,learn,0.38636,0.10352,1,1,1,2.41414,angle,0
x101,learn,203,L25,learn,-1.07384,-0.62,0,1,0,2.05592,angle,0
x101,learn,204,L28,learn,-0.64,0,1,0,0,3.500575,angle,0
x101,learn,205,L31,learn,0.38636,-0.10352,1,1,1,1.585635,angle,0
x101,learn,206,L26,learn,-1.07384,0.62,0,0,1,1.99376,angle,0
x101,learn,207,L20,learn,0.10352,0.38636,1,1,1,2.26167,angle,0
x101,learn,208,L5,learn,1.07384,0.62,0,1,0,1.28383,angle,0
x101,learn,209,L2,learn,0.452544,0.452544,1,1,1,1.10824,angle,0
x101,learn,210,L17,learn,-0.452544,-0.452544,1,0,0,4.5404,angle,0
x101,learn,211,L30,learn,0,-1.84,0,0,1,0.703415,angle,0
x101,learn,212,L19,learn,-0.10352,-0.38636,1,1,1,1.105775,angle,0
x101,learn,213,L3,learn,0.62,1.07384,0,0,1,1.560895,angle,0
x101,learn,214,L12,learn,0.452544,-0.452544,1,1,1,2.522735,angle,0
x101,learn,215,L16,learn,0,0.64,1,1,1,4.840705,angle,0
x101,learn,216,L9,learn,0,-0.64,1,0,0,2.662915,angle,0
x101,learn,217,L22,learn,1.07384,-0.62,0,0,1,1.29217,angle,0
x101,learn,218,L13,learn,-0.62,-1.07384,0,1,0,2.96537,angle,0
x101,learn,219,L10,learn,0,1.84,0,0,1,0.73729,angle,0
x101,learn,220,L11,learn,0.64,0,1,1,1,0.820085,angle,0
x101,learn,221,L4,learn,-0.452544,0.452544,1,0,0,1.257535,angle,0
x101,learn,222,L21,learn,-1.301064,-1.301064,0,0,1,0.987595,angle,0
x101,learn,223,L6,learn,0.62,-1.07384,0,0,1,0.73752,angle,0
x101,learn,224,L18,learn,-0.38636,0.10352,1,1,1,2.663845,angle,0
x101,learn,225,L9,learn,0,-0.64,1,1,1,5.02352,angle,0
x101,learn,226,L18,learn,-0.38636,0.10352,1,1,1,2.063575,angle,0
x101,learn,227,L22,learn,1.07384,-0.62,0,0,1,2.706575,angle,0
x101,learn,228,L17,learn,-0.452544,-0.452544,1,1,1,2.008575,angle,0
x101,learn,229,L30,learn,0,-1.84,0,0,1,0.70213,angle,0
x101,learn,230,L24,learn,-0.62,1.07384,0,0,1,0.918115,angle,0
x101,learn,231,L1,learn,-0.38636,-0.10352,1,1,1,1.00537,angle,0
x101,learn,232,L29,learn,-1.84,0,0,1,0,2.51222,angle,0
x101,learn,233,L25,learn,-1.07384,-0.62,0,1,0,2.186555,angle,0
x101,learn,234,L14,learn,0.38636,0.10352,1,1,1,2.188395,angle,0
x101,learn,235,L26,learn,-1.07384,0.62,0,0,1,1.438255,angle,0
x101,learn,236,L19,learn,-0.10352,-0.38636,1,1,1,1.371795,angle,0
x101,learn,237,L15,learn,-1.301064,1.301064,0,0,1,0.78832,angle,0
x101,learn,238,L13,learn,-0.62,-1.07384,0,0,1,1.175275,angle,0
x101,learn,239,L3,learn,0.62,1.07384,0,0,1,0.78486,angle,0
x101,learn,240,L21,learn,-1.301064,-1.301064,0,0,1,3.834645,angle,0
x101,learn,241,L12,learn,0.452544,-0.452544,1,1,1,1.15868,angle,0
x101,learn,242,L8,learn,1.84,0,0,0,1,1.339755,angle,0
x101,learn,243,L6,learn,0.62,-1.07384,0,0,1,2.32533,angle,0
x101,learn,244,L27,learn,1.301064,-1.301064,0,0,1,0.82283,angle,0
x101,learn,245,L4,learn,-0.452544,0.452544,1,0,0,0.839335,angle,0
x101,learn,246,L32,learn,0.10352,-0.38636,1,1,1,2.07039,angle,0
x101,learn,247,L5,learn,1.07384,0.62,0,0,1,0.888465,angle,0
x101,learn,248,L11,learn,0.64,0,1,1,1,4.940415,angle,0
x101,learn,249,L31,learn,0.38636,-0.10352,1,1,1,0.813585,angle,0
x101,learn,250,L10,learn,0,1.84,0,0,1,0.67131,angle,0
x101,learn,251,L28,learn,-0.64,0,1,1,1,1.472135,angle,0
x101,learn,252,L16,learn,0,0.64,1,0,0,2.199835,angle,0
x101,learn,253,L23,learn,1.301064,1.301064,0,0,1,1.50577,angle,0
x101,learn,254,L7,learn,-0.10352,0.38636,1,0,0,2.07078,angle,0
x101,learn,255,L20,learn,0.10352,0.38636,1,1,1,0.56224,angle,0
x101,learn,256,L2,learn,0.452544,0.452544,1,1,1,0.567465,angle,0
x101,learn,257,L17,learn,-0.452544,-0.452544,1,1,1,1.674045,angle,0
x101,learn,258,L24,learn,-0.62,1.07384,0,0,1,0.870945,angle,0
x101,learn,259,L22,learn,1.07384,-0.62,0,1,0,0.937555,angle,0
x101,learn,260,L11,learn,0.64,0,1,1,1,0.57185,angle,0
x101,learn,261,L21,learn,-1.301064,-1.301064,0,0,1,2.54632,angle,0
x101,learn,262,L29,learn,-1.84,0,0,1,0,1.3873,angle,0
x101,learn,263,L6,learn,0.62,-1.07384,0,0,1,1.71268,angle,0
x101,learn,264,L15,learn,-1.301064,1.301064,0,0,1,0.63531,angle,0
x101,learn,265,L3,learn,0.62,1.07384,0,0,1,1.003125,angle,0
x101,learn,266,L12,learn,0.452544,-0.452544,1,1,1,1.13919,angle,0
x101,learn,267,L23,learn,1.301064,1.301064,0,0,1,0.635425,angle,0
x101,learn,268,L28,learn,-0.64,0,1,0,0,3.494405,angle,0
x101,learn,269,L9,learn,0,-0.64,1,1,1,1.18793,angle,0
x101,learn,270,L27,learn,1.301064,-1.301064,0,0,1,1.40989,angle,0
x101,learn,271,L7,learn,-0.10352,0.38636,1,0,0,1.624025,angle,0
x101,learn,272,L30,learn,0,-1.84,0,0,1,1.740395,angle,0
x101,learn,273,L25,learn,-1.07384,-0.62,0,1,0,1.256135,angle,0
x101,learn,274,L18,learn,-0.38636,0.10352,1,1,1,2.578265,angle,0
x101,learn,275,L14,learn,0.38636,0.10352,1,1,1,0.98744,angle,0
x101,learn,276,L16,learn,0,0.64,1,0,0,1.260435,angle,0
x101,learn,277,L5,learn,1.07384,0.62,0,0,1,1.8119,angle,0
x101,learn,278,L1,learn,-0.38636,-0.10352,1,1,1,1.00852,angle,0
x101,learn,279,L10,learn,0,1.84,0,0,1,0.76449,angle,0
x101,learn,280,L8,learn,1.84,0,0,0,1,5.492705,angle,0
x101,learn,281,L26,learn,-1.07384,0.62,0,0,1,0.969985,angle,0
x101,learn,282,L13,learn,-0.62,-1.07384,0,0,1,4.386785,angle,0
x101,learn,283,L19,learn,-0.10352,-0.38636,1,1,1,0.967475,angle,0
x101,learn,284,L4,learn,-0.452544,0.452544,1,0,0,1.81481,angle,0
x101,learn,285,L31,learn,0.38636,-0.10352,1,1,1,1.305065,angle,0
x101,learn,286,L2,learn,0.452544,0.452544,1,0,0,1.2387,angle,0
x101,learn,287,L32,learn,0.10352,-0.38636,1,1,1,0.88172,angle,0
x101,learn,288,L20,learn,0.10352,0.38636,1,0,0,1.50497,angle,0
x101,learn,289,L20,learn,0.10352,0.38636,1,1,1,1.77449,angle,0
x101,learn,290,L14,learn,0.38636,0.10352,1,1,1,1.090325,angle,0
x101,learn,291,L21,learn,-1.301064,-1.301064,0,0,1,4.672925,angle,0
x101,learn,292,L26,learn,-1.07384,0.62,0,0,1,0.87219,angle,0
x101,learn,293,L4,learn,-0.452544,0.452544,1,0,0,1.428665,angle,0
x101,learn,294,L31,learn,0.38636,-0.10352,1,1,1,0.957995,angle,0
x101,learn,295,L22,learn,1.07384,-0.62,0,1,0,1.390285,angle,0
x101,learn,296,L32,learn,0.10352,-0.38636,1,1,1,0.948255,angle,0
x101,learn,297,L5,learn,1.07384,0.62,0,0,1,0.723465,angle,0
x101,learn,298,L28,learn,-0.64,0,1,0,0,1.071055,angle,0
x101,learn,299,L8,learn,1.84,0,0,1,0,0.535385,angle,0
x101,learn,300,L16,learn,0,0.64,1,0,0,1.491475,angle,0
x101,learn,301,L3,learn,0.62,1.07384,0,0,1,5.144775,angle,0
x101,learn,302,L30,learn,0,-1.84,0,0,1,1.102325,angle,0
x101,learn,303,L7,learn,-0.10352,0.38636,1,0,0,2.446855,angle,0
x101,learn,304,L6,learn,0.62,-1.07384,0,0,1,2.092915,angle,0
x101,learn,305,L17,learn,-0.452544,-0.452544,1,1,1,0.602395,angle,0
x101,learn,306,L2,learn,0.452544,0.452544,1,0,0,1.791805,angle,0
x101,learn,307,L25,learn,-1.07384,-0.62,0,1,0,1.16971,angle,0
x101,learn,308,L24,learn,-0.62,1.07384,0,0,1,0.68815,angle,0
x101,learn,309,L13,learn,-0.62,-1.07384,0,0,1,6.211845,angle,0
x101,learn,310,L10,learn,0,1.84,0,0,1,2.614295,angle,0
x101,learn,311,L19,learn,-0.10352,-0.38636,1,1,1,4.180965,angle,0
x101,learn,312,L9,learn,0,-0.64,1,1,1,1.323775,angle,0
x101,learn,313,L12,learn,0.452544,-0.452544,1,1,1,0.85362,angle,0
x101,learn,314,L18,learn,-0.38636,0.10352,1,1,1,2.295495,angle,0
x101,learn,315,L1,learn,-0.38636,-0.10352,1,1,1,1.02238,angle,0
x101,learn,316,L23,learn,1.301064,1.301064,0,0,1,0.770575,angle,0
x101,learn,317,L29,learn,-1.84,0,0,1,0,2.596355,angle,0
x101,learn,318,L11,learn,0.64,0,1,1,1,0.666455,angle,0
x101,learn,319,L15,learn,-1.301064,1.301064,0,0,1,0.884605,angle,0
x101,learn,320,L27,learn,1.301064,-1.301064,0,0,1,4.740385,angle,0
x101,learn,321,L1,learn,-0.38636,-0.10352,1,1,1,2.018445,angle,0
x101,learn,322,L29,learn,-1.84,0,0,0,1,3.854125,angle,0
x101,learn,323,L5,learn,1.07384,0.62,0,0,1,0.790765,angle,0
x101,learn,324,L30,learn,0,-1.84,0,0,1,0.69654,angle,0
x101,learn,325,L4,learn,-0.452544,0.452544,1,0,0,0.72239,angle,0
x101,learn,326,L2,learn,0.452544,0.452544,1,1,1,1.394,angle,0
x101,learn,327,L22,learn,1.07384,-0.62,0,1,0,1.424915,angle,0
x101,learn,328,L14,learn,0.38636,0.10352,1,1,1,3.193705,angle,0
x101,learn,329,L11,learn,0.64,0,1,1,1,4.41604,angle,0
x101,learn,330,L21,learn,-1.301064,-1.301064,0,0,1,1.053835,angle,0
x101,learn,331,L13,learn,-0.62,-1.07384,0,0,1,1.72518,angle,0
x101,learn,332,L27,learn,1.301064,-1.301064,0,0,1,0.736985,angle,0
x101,learn,333,L24,learn,-0.62,1.07384,0,0,1,0.767705,angle,0
x101,learn,334,L32,learn,0.10352,-0.38636,1,1,1,1.99267,angle,0
x101,learn,335,L16,learn,0,0.64,1,0,0,2.708525,angle,0
x101,learn,336,L7,learn,-0.10352,0.38636,1,1,1,2.445845,angle,0
x101,learn,337,L12,learn,0.452544,-0.452544,1,1,1,1.27298,angle,0
x101,learn,338,L10,learn,0,1.84,0,0,1,0.755095,angle,0
x101,learn,339,L15,learn,-1.301064,1.301064,0,0,1,1.559115,angle,0
x101,learn,340,L31,learn,0.38636,-0.10352,1,1,1,1.19369,angle,0
x101,learn,341,L17,learn,-0.452544,-0.452544,1,1,1,1.03667,angle,0
x101,learn,342,L8,learn,1.84,0,0,1,0,2.02646,angle,0
x101,learn,343,L28,learn,-0.64,0,1,1,1,4.11033,angle,0
x101,learn,344,L23,learn,1.301064,1.301064,0,0,1,1.707935,angle,0
x101,learn,345,L9,learn,0,-0.64,1,1,1,3.129685,angle,0
x101,learn,346,L19,learn,-0.10352,-0.38636,1,1,1,1.12126,angle,0
x101,learn,347,L25,learn,-1.07384,-0.62,0,1,0,0.620025,angle,0
x101,learn,348,L6,learn,0.62,-1.07384,0,1,0,1.01766,angle,0
x101,learn,349,L18,learn,-0.38636,0.10352,1,1,1,1.20792,angle,0
x101,learn,350,L3,learn,0.62,1.07384,0,0,1,0.7873,angle,0
x101,learn,351,L26,learn,-1.07384,0.62,0,1,0,9.670745,angle,0
x101,learn,352,L20,learn,0.10352,0.38636,1,0,0,1.152375,angle,0
x101,learn,353,L11,learn,0.64,0,1,0,0,0.035685,angle,0
x101,learn,354,L3,learn,0.62,1.07384,0,0,1,0.149035,angle,0
x101,learn,355,L32,learn,0.10352,-0.38636,1,0,0,0.15439,angle,0
x101,learn,356,L12,learn,0.452544,-0.452544,1,0,0,0.00069,angle,0
x101,learn,357,L4,learn,-0.452544,0.452544,1,0,0,0.01593,angle,0
x101,learn,358,L2,learn,0.452544,0.452544,1,0,0,0.137915,angle,0
x101,learn,359,L21,learn,-1.301064,-1.301064,0,0,1,0.070385,angle,0
x101,learn,360,L30,learn,0,-1.84,0,1,0,0.06583,angle,0
x101,learn,361,L1,learn,-0.38636,-0.10352,1,1,1,0.752965,angle,0
x101,learn,362,L17,learn,-0.452544,-0.452544,1,1,1,0.36799,angle,0
x101,learn,363,L28,learn,-0.64,0,1,1,1,0.00907,angle,0
x101,learn,364,L23,learn,1.301064,1.301064,0,1,0,0.10081,angle,0
x101,learn,365,L27,learn,1.301064,-1.301064,0,0,1,0.352225,angle,0
x101,learn,366,L9,learn,0,-0.64,1,0,0,0.55089,angle,0
x101,learn,367,L10,learn,0,1.84,0,0,1,0.052785,angle,0
x101,learn,368,L13,learn,-0.62,-1.07384,0,1,0,0.51847,angle,0
x101,learn,369,L25,learn,-1.07384,-0.62,0,1,0,0.21772,angle,0
x101,learn,370,L7,learn,-0.10352,0.38636,1,1,1,0.160405,angle,0
x101,learn,371,L29,learn,-1.84,0,0,1,0,0.032925,angle,0
x101,learn,372,L16,learn,0,0.64,1,0,0,0.10198,angle,0
x101,learn,373,L31,learn,0.38636,-0.10352,1,1,1,0.085595,angle,0
x101,learn,374,L24,learn,-0.62,1.07384,0,0,1,0.15058,angle,0
x101,learn,375,L20,learn,0.10352,0.38636,1,0,0,0.016145,angle,0
x101,learn,376,L6,learn,0.62,-1.07384,0,0,1,0.010005,angle,0
x101,learn,377,L14,learn,0.38636,0.10352,1,1,1,0.01976,angle,0
x101,learn,378,L26,learn,-1.07384,0.62,0,0,1,0.05448,angle,0
x101,learn,379,L19,learn,-0.10352,-0.38636,1,0,0,0.088375,angle,0
x101,learn,380,L22,learn,1.07384,-0.62,0,0,1,0.00066,angle,0
x101,learn,381,L5,learn,1.07384,0.62,0,0,1,0.00076,angle,0
x101,learn,382,L18,learn,-0.38636,0.10352,1,1,1,0.083605,angle,0
x101,learn,383,L8,learn,1.84,0,0,0,1,0.135285,angle,0
x101,learn,384,L15,learn,-1.301064,1.301064,0,0,1,0.01623,angle,0
x101,learn,385,L6,learn,0.62,-1.07384,0,1,0,0.03332,angle,0
x101,learn,386,L4,learn,-0.452544,0.452544,1,0,0,0.016395,angle,0
x101,learn,387,L18,learn,-0.38636,0.10352,1,0,0,0.05085,angle,0
x101,learn,388,L31,learn,0.38636,-0.10352,1,0,0,0.02549,angle,0
x101,learn,389,L17,learn,-0.452544,-0.452544,1,1,1,0.117115,angle,0
x101,learn,390,L5,learn,1.07384,0.62,0,1,0,0.000635,angle,0
x101,learn,391,L29,learn,-1.84,0,0,0,1,0.049135,angle,0
x101,learn,392,L28,learn,-0.64,0,1,0,0,0.03255,angle,0
x101,learn,393,L25,learn,-1.07384,-0.62,0,0,1,0.152995,angle,0
x101,learn,394,L27,learn,1.301064,-1.301064,0,1,0,0.08679,angle,0
x101,learn,395,L19,learn,-0.10352,-0.38636,1,1,1,0.150245,angle,0
x101,learn,396,L3,learn,0.62,1.07384,0,0,1,0.015615,angle,0
x101,learn,397,L13,learn,-0.62,-1.07384,0,1,0,0.1501,angle,0
x101,learn,398,L24,learn,-0.62,1.07384,0,1,0,0.151095,angle,0
x101,learn,399,L32,learn,0.10352,-0.38636,1,1,1,0.01591,angle,0
x101,learn,400,L10,learn,0,1.84,0,1,0,0.09504,angle,0
x101,learn,401,L1,learn,-0.38636,-0.10352,1,1,1,2.308495,angle,0
x101,learn,402,L9,learn,0,-0.64,1,1,1,1.610925,angle,0
x101,learn,403,L22,learn,1.07384,-0.62,0,1,0,2.26139,angle,0
x101,learn,404,L14,learn,0.38636,0.10352,1,0,0,4.03987,angle,0
x101,learn,405,L7,learn,-0.10352,0.38636,1,0,0,4.56978,angle,0
x101,learn,406,L8,learn,1.84,0,0,0,1,0.099565,angle,0
x101,learn,407,L15,learn,-1.301064,1.301064,0,0,1,0.000805,angle,0
x101,learn,408,L23,learn,1.301064,1.301064,0,0,1,0.167065,angle,0
x101,learn,409,L30,learn,0,-1.84,0,1,0,3.066575,angle,0
x101,learn,410,L12,learn,0.452544,-0.452544,1,0,0,0.03198,angle,0
x101,learn,411,L2,learn,0.452544,0.452544,1,1,1,0.082865,angle,0
x101,learn,412,L11,learn,0.64,0,1,0,0,12.095285,angle,0
x101,learn,413,L26,learn,-1.07384,0.62,0,0,1,1.08639,angle,0
x101,learn,414,L21,learn,-1.301064,-1.301064,0,0,1,3.37731,angle,0
x101,learn,415,L20,learn,0.10352,0.38636,1,1,1,10.689105,angle,0
x101,learn,416,L16,learn,0,0.64,1,1,1,0.850215,angle,0
x101,learn,417,L24,learn,-0.62,1.07384,0,0,1,0.787085,angle,0
x101,learn,418,L21,learn,-1.301064,-1.301064,0,0,1,1.070585,angle,0
x101,learn,419,L17,learn,-0.452544,-0.452544,1,1,1,1.3071,angle,0
x101,learn,420,L30,learn,0,-1.84,0,0,1,0.78653,angle,0
x101,learn,421,L3,learn,0.62,1.07384,0,0,1,1.61223,angle,0
x101,learn,422,L12,learn,0.452544,-0.452544,1,1,1,0.93996,angle,0
x101,learn,423,L20,learn,0.10352,0.38636,1,1,1,1.99966,angle,0
x101,learn,424,L16,learn,0,0.64,1,0,0,0.85088,angle,0
x101,learn,425,L2,learn,0.452544,0.452544,1,1,1,0.747025,angle,0
x101,learn,426,L14,learn,0.38636,0.10352,1,1,1,0.71857,angle,0
x101,learn,427,L4,learn,-0.452544,0.452544,1,1,1,0.966695,angle,0
x101,learn,428,L32,learn,0.10352,-0.38636,1,1,1,0.83966,angle,0
x101,learn,429,L31,learn,0.38636,-0.10352,1,1,1,0.652945,angle,0
x101,learn,430,L26,learn,-1.07384,0.62,0,0,1,0.904955,angle,0
x101,learn,431,L28,learn,-0.64,0,1,1,1,0.617685,angle,0
x101,learn,432,L25,learn,-1.07384,-0.62,0,1,0,1.02481,angle,0
x101,learn,433,L22,learn,1.07384,-0.62,0,1,0,0.78974,angle,0
x101,learn,434,L8,learn,1.84,0,0,1,0,1.791135,angle,0
x101,learn,435,L5,learn,1.07384,0.62,0,0,1,1.01951,angle,0
x101,learn,436,L15,learn,-1.301064,1.301064,0,0,1,0.602125,angle,0
x101,learn,437,L19,learn,-0.10352,-0.38636,1,1,1,1.72189,angle,0
x101,learn,438,L9,learn,0,-0.64,1,1,1,2.53842,angle,0
x101,learn,439,L10,learn,0,1.84,0,0,1,1.103395,angle,0
x101,learn,440,L27,learn,1.301064,-1.301064,0,0,1,0.96996,angle,0
x101,learn,441,L6,learn,0.62,-1.07384,0,0,1,0.65479,angle,0
x101,learn,442,L1,learn,-0.38636,-0.10352,1,1,1,2.061085,angle,0
x101,learn,443,L13,learn,-0.62,-1.07384,0,0,1,7.822715,angle,0
x101,learn,444,L7,learn,-0.10352,0.38636,1,0,0,1.110645,angle,0
x101,learn,445,L29,learn,-1.84,0,0,1,0,0.887075,angle,0
x101,learn,446,L23,learn,1.301064,1.301064,0,0,1,0.63355,angle,0
x101,learn,447,L11,learn,0.64,0,1,0,0,0.79807,angle,0
x101,learn,448,L18,learn,-0.38636,0.10352,1,1,1,0.6195,angle,0
x101,learn,449,L18,learn,-0.38636,0.10352,1,1,1,1.42296,angle,0
x101,learn,450,L29,learn,-1.84,0,0,1,0,3.843845,angle,0
x101,learn,451,L7,learn,-0.10352,0.38636,1,1,1,1.38547,angle,0
x101,learn,452,L15,learn,-1.301064,1.301064,0,0,1,0.880755,angle,0
x101,learn,453,L32,learn,0.10352,-0.38636,1,1,1,0.921175,angle,0
x101,learn,454,L25,learn,-1.07384,-0.62,0,1,0,0.836885,angle,0
x101,learn,455,L27,learn,1.301064,-1.301064,0,0,1,0.718755,angle,0
x101,learn,456,L24,learn,-0.62,1.07384,0,0,1,1.004825,angle,0
x101,learn,457,L2,learn,0.452544,0.452544,1,1,1,2.4902,angle,0
x101,learn,458,L11,learn,0.64,0,1,1,1,1.10566,angle,0
x101,learn,459,L17,learn,-0.452544,-0.452544,1,1,1,0.937705,angle,0
x101,learn,460,L26,learn,-1.07384,0.62,0,0,1,0.888665,angle,0
x101,learn,461,L21,learn,-1.301064,-1.301064,0,0,1,3.31658,angle,0
x101,learn,462,L8,learn,1.84,0,0,0,1,20.941355,angle,0
x101,learn,463,L10,learn,0,1.84,0,0,1,0.817295,angle,0
x101,learn,464,L16,learn,0,0.64,1,1,1,6.91835,angle,0
x101,learn,465,L20,learn,0.10352,0.38636,1,1,1,1.549,angle,0
x101,learn,466,L1,learn,-0.38636,-0.10352,1,1,1,0.84008,angle,0
x101,learn,467,L19,learn,-0.10352,-0.38636,1,1,1,0.735605,angle,0
x101,learn,468,L4,learn,-0.452544,0.452544,1,1,1,0.83805,angle,0
x101,learn,469,L13,learn,-0.62,-1.07384,0,0,1,0.917505,angle,0
x101,learn,470,L31,learn,0.38636,-0.10352,1,1,1,1.191415,angle,0
x101,learn,471,L12,learn,0.452544,-0.452544,1,1,1,1.021865,angle,0
x101,learn,472,L3,learn,0.62,1.07384,0,0,1,0.61786,angle,0
x101,learn,473,L6,learn,0.62,-1.07384,0,0,1,12.179205,angle,0
x101,learn,474,L23,learn,1.301064,1.301064,0,0,1,0.60009,angle,0
x101,learn,475,L30,learn,0,-1.84,0,0,1,1.10548,angle,0
x101,learn,476,L14,learn,0.38636,0.10352,1,1,1,1.374715,angle,0
x101,learn,477,L22,learn,1.07384,-0.62,0,1,0,4.45584,angle,0
x101,learn,478,L28,learn,-0.64,0,1,0,0,0.86626,angle,0
x101,learn,479,L9,learn,0,-0.64,1,0,0,0.679025,angle,0
x101,learn,480,L5,learn,1.07384,0.62,0,0,1,0.5722,angle,0
x101,learn,481,L7,learn,-0.10352,0.38636,1,0,0,0.853115,angle,0
x101,learn,482,L9,learn,0,-0.64,1,1,1,1.55927,angle,0
x101,learn,483,L6,learn,0.62,-1.07384,0,0,1,2.303575,angle,0
x101,learn,484,L22,learn,1.07384,-0.62,0,1,0,0.837275,angle,0
x101,learn,485,L17,learn,-0.452544,-0.452544,1,1,1,0.46975,angle,0
x101,learn,486,L13,learn,-0.62,-1.07384,0,1,0,1.57424,angle,0
x101,learn,487,L25,learn,-1.07384,-0.62,0,1,0,0.90532,angle,0
x101,learn,488,L1,learn,-0.38636,-0.10352,1,1,1,2.846415,angle,0
x101,learn,489,L18,learn,-0.38636,0.10352,1,1,1,1.907185,angle,0
x101,learn,490,L10,learn,0,1.84,0,0,1,0.553835,angle,0
x101,learn,491,L4,learn,-0.452544,0.452544,1,1,1,4.05843,angle,0
x101,learn,492,L14,learn,0.38636,0.10352,1,1,1,0.785065,angle,0
x101,learn,493,L2,learn,0.452544,0.452544,1,1,1,1.438315,angle,0
x101,learn,494,L19,learn,-0.10352,-0.38636,1,1,1,1.288485,angle,0
x101,learn,495,L8,learn,1.84,0,0,0,1,1.28944,angle,0
x101,learn,496,L27,learn,1.301064,-1.301064,0,0,1,0.716375,angle,0
x101,learn,497,L28,learn,-0.64,0,1,1,1,1.092615,angle,0
x101,learn,498,L29,learn,-1.84,0,0,1,0,1.06904,angle,0
x101,learn,499,L30,learn,0,-1.84,0,0,1,0.62483,angle,0
x101,learn,500,L31,learn,0.38636,-0.10352,1,1,1,1.00088,angle,0
x101,learn,501,L11,learn,0.64,0,1,1,1,0.971145,angle,0
x101,learn,502,L24,learn,-0.62,1.07384,0,0,1,2.84784,angle,0
x101,learn,503,L12,learn,0.452544,-0.452544,1,1,1,0.970235,angle,0
x101,learn,504,L20,learn,0.10352,0.38636,1,1,1,2.590875,angle,0
x101,learn,505,L16,learn,0,0.64,1,1,1,9.59681,angle,0
x101,learn,506,L32,learn,0.10352,-0.38636,1,1,1,3.72167,angle,0
x101,learn,507,L21,learn,-1.301064,-1.301064,0,0,1,7.590145,angle,0
x101,learn,508,L5,learn,1.07384,0.62,0,0,1,0.9676,angle,0
x101,learn,509,L26,learn,-1.07384,0.62,0,0,1,15.1455,angle,0
x101,learn,510,L23,learn,1.301064,1.301064,0,0,1,1.860075,angle,0
x101,learn,511,L3,learn,0.62,1.07384,0,0,1,0.587705,angle,0
x101,learn,512,L15,learn,-1.301064,1.301064,0,0,1,0.773305,angle,0
x101,learn,513,L15,learn,-1.301064,1.301064,0,0,1,1.406275,angle,0
x101,learn,514,L1,learn,-0.38636,-0.10352,1,1,1,1.31045,angle,0
x101,learn,515,L24,learn,-0.62,1.07384,0,0,1,1.048875,angle,0
x101,learn,516,L5,learn,1.07384,0.62,0,0,1,2.141385,angle,0
x101,learn,517,L23,learn,1.301064,1.301064,0,0,1,1.60324,angle,0
x101,learn,518,L4,learn,-0.452544,0.452544,1,1,1,4.48981,angle,0
x101,learn,519,L29,learn,-1.84,0,0,0,1,4.94452,angle,0
x101,learn,520,L16,learn,0,0.64,1,0,0,3.220665,angle,0
x101,learn,521,L22,learn,1.07384,-0.62,0,1,0,5.036865,angle,0
x101,learn,522,L6,learn,0.62,-1.07384,0,0,1,1.09138,angle,0
x101,learn,523,L28,learn,-0.64,0,1,1,1,6.667175,angle,0
x101,learn,524,L14,learn,0.38636,0.10352,1,1,1,0.78435,angle,0
x101,learn,525,L26,learn,-1.07384,0.62,0,0,1,1.208355,angle,0
x101,learn,526,L10,learn,0,1.84,0,0,1,2.112585,angle,0
x101,learn,527,L30,learn,0,-1.84,0,0,1,1.625935,angle,0
x101,learn,528,L12,learn,0.452544,-0.452544,1,1,1,7.585295,angle,0
x101,learn,529,L19,learn,-0.10352,-0.38636,1,1,1,3.49892,angle,0
x101,learn,530,L13,learn,-0.62,-1.07384,0,0,1,4.557705,angle,0
x101,learn,531,L9,learn,0,-0.64,1,1,1,2.789505,angle,0
x101,learn,532,L2,learn,0.452544,0.452544,1,0,0,4.30507,angle,0
x101,learn,533,L27,learn,1.301064,-1.301064,0,0,1,1.5727,angle,0
x101,learn,534,L31,learn,0.38636,-0.10352,1,1,1,2.197165,angle,0
x101,learn,535,L25,learn,-1.07384,-0.62,0,1,0,4.890445,angle,0
x101,learn,536,L8,learn,1.84,0,0,0,1,1.49865,angle,0
x101,learn,537,L32,learn,0.10352,-0.38636,1,1,1,1.375845,angle,0
x101,learn,538,L21,learn,-1.301064,-1.301064,0,0,1,0.81296,angle,0
x101,learn,539,L17,learn,-0.452544,-0.452544,1,1,1,0.989345,angle,0
x101,learn,540,L11,learn,0.64,0,1,1,1,1.450965,angle,0
x101,learn,541,L20,learn,0.10352,0.38636,1,1,1,4.674625,angle,0
x101,learn,542,L3,learn,0.62,1.07384,0,0,1,0.61043,angle,0
x101,learn,543,L7,learn,-0.10352,0.38636,1,1,1,7.488045,angle,0
x101,learn,544,L18,learn,-0.38636,0.10352,1,1,1,2.17545,angle,0
x101,learn,545,L4,learn,-0.452544,0.452544,1,1,1,1.561255,angle,0
x101,learn,546,L9,learn,0,-0.64,1,1,1,5.01284,angle,0
x101,learn,547,L17,learn,-0.452544,-0.452544,1,1,1,3.857735,angle,0
x101,learn,548,L15,learn,-1.301064,1.301064,0,0,1,0.660995,angle,0
x101,learn,549,L22,learn,1.07384,-0.62,0,1,0,0.871275,angle,0
x101,learn,550,L28,learn,-0.64,0,1,1,1,0.48579,angle,0
x101,learn,551,L21,learn,-1.301064,-1.301064,0,0,1,0.803855,angle,0
x101,learn,552,L6,learn,0.62,-1.07384,0,0,1,8.392365,angle,0
x101,learn,553,L30,learn,0,-1.84,0,0,1,1.38982,angle,0
x101,learn,554,L14,learn,0.38636,0.10352,1,1,1,4.25311,angle,0
x101,learn,555,L19,learn,-0.10352,-0.38636,1,1,1,0.751325,angle,0
x101,learn,556,L11,learn,0.64,0,1,1,1,11.02229,angle,0
x101,learn,557,L24,learn,-0.62,1.07384,0,0,1,1.052485,angle,0
x101,learn,558,L7,learn,-0.10352,0.38636,1,0,0,2.01255,angle,0
x101,learn,559,L1,learn,-0.38636,-0.10352,1,1,1,0.93859,angle,0
x101,learn,560,L5,learn,1.07384,0.62,0,0,1,1.256905,angle,0
x101,learn,561,L27,learn,1.301064,-1.301064,0,0,1,0.67014,angle,0
x101,learn,562,L18,learn,-0.38636,0.10352,1,1,1,0.95541,angle,0
x101,learn,563,L13,learn,-0.62,-1.07384,0,0,1,5.55592,angle,0
x101,learn,564,L32,learn,0.10352,-0.38636,1,1,1,2.407975,angle,0
x101,learn,565,L31,learn,0.38636,-0.10352,1,1,1,8.62558,angle,0
x101,learn,566,L8,learn,1.84,0,0,1,0,4.487585,angle,0
x101,learn,567,L25,learn,-1.07384,-0.62,0,1,0,4.238975,angle,0
x101,learn,568,L23,learn,1.301064,1.301064,0,0,1,2.899305,angle,0
x101,learn,569,L20,learn,0.10352,0.38636,1,0,0,3.214335,angle,0
x101,learn,570,L10,learn,0,1.84,0,0,1,0.94234,angle,0
x101,learn,571,L2,learn,0.452544,0.452544,1,1,1,8.222325,angle,0
x101,learn,572,L12,learn,0.452544,-0.452544,1,1,1,4.573555,angle,0
x101,learn,573,L26,learn,-1.07384,0.62,0,0,1,6.98338,angle,0
x101,learn,574,L16,learn,0,0.64,1,0,0,5.764375,angle,0
x101,learn,575,L3,learn,0.62,1.07384,0,0,1,1.201975,angle,0
x101,learn,576,L29,learn,-1.84,0,0,1,0,9.73288,angle,0
x101,learn,577,L23,learn,1.301064,1.301064,0,0,1,1.542695,angle,0
x101,learn,578,L27,learn,1.301064,-1.301064,0,0,1,10.5558,angle,0
x101,learn,579,L20,learn,0.10352,0.38636,1,0,0,1.136995,angle,0
x101,learn,580,L19,learn,-0.10352,-0.38636,1,1,1,3.936685,angle,0
x101,learn,581,L16,learn,0,0.64,1,0,0,0.98664,angle,0
x101,learn,582,L22,learn,1.07384,-0.62,0,1,0,0.822465,angle,0
x101,learn,583,L17,learn,-0.452544,-0.452544,1,1,1,0.569375,angle,0
x101,learn,584,L13,learn,-0.62,-1.07384,0,1,0,1.640465,angle,0
x101,learn,585,L30,learn,0,-1.84,0,0,1,0.67007,angle,0
x101,learn,586,L1,learn,-0.38636,-0.10352,1,1,1,0.88288,angle,0
x101,learn,587,L8,learn,1.84,0,0,0,1,1.032505,angle,0
x101,learn,588,L5,learn,1.07384,0.62,0,0,1,1.82444,angle,0
x101,learn,589,L25,learn,-1.07384,-0.62,0,1,0,1.07508,angle,0
x101,learn,590,L31,learn,0.38636,-0.10352,1,0,0,1.19066,angle,0
x101,learn,591,L12,learn,0.452544,-0.452544,1,1,1,1.660505,angle,0
x101,learn,592,L29,learn,-1.84,0,0,0,1,1.439215,angle,0
x101,learn,593,L10,learn,0,1.84,0,0,1,1.88791,angle,0
x101,learn,594,L28,learn,-0.64,0,1,1,1,2.42899,angle,0
x101,learn,595,L7,learn,-0.10352,0.38636,1,1,1,4.567705,angle,0
x101,learn,596,L3,learn,0.62,1.07384,0,0,1,1.292625,angle,0
x101,learn,597,L6,learn,0.62,-1.07384,0,1,0,2.825005,angle,0
x101,learn,598,L21,learn,-1.301064,-1.301064,0,0,1,0.654365,angle,0
x101,learn,599,L11,learn,0.64,0,1,1,1,1.301235,angle,0
x101,learn,600,L24,learn,-0.62,1.07384,0,0,1,0.652645,angle,0
x101,learn,601,L32,learn,0.10352,-0.38636,1,1,1,1.355325,angle,0
x101,learn,602,L4,learn,-0.452544,0.452544,1,1,1,1.5783,angle,0
x101,learn,603,L9,learn,0,-0.64,1,1,1,1.68527,angle,0
x101,learn,604,L26,learn,-1.07384,0.62,0,0,1,1.012235,angle,0
x101,learn,605,L2,learn,0.452544,0.452544,1,0,0,4.321145,angle,0
x101,learn,606,L18,learn,-0.38636,0.10352,1,1,1,1.13768,angle,0
x101,learn,607,L15,learn,-1.301064,1.301064,0,0,1,0.85543,angle,0
x101,learn,608,L14,learn,0.38636,0.10352,1,1,1,1.25583,angle,0
x101,learn,609,L22,learn,1.07384,-0.62,0,1,0,6.62653,angle,0
x101,learn,610,L28,learn,-0.64,0,1,1,1,0.754145,angle,0
x101,learn,611,L31,learn,0.38636,-0.10352,1,1,1,2.11355,angle,0
x101,learn,612,L21,learn,-1.301064,-1.301064,0,0,1,0.737605,angle,0
x101,learn,613,L3,learn,0.62,1.07384,0,0,1,3.149715,angle,0
x101,learn,614,L13,learn,-0.62,-1.07384,0,0,1,2.0777,angle,0
x101,learn,615,L32,learn,0.10352,-0.38636,1,1,1,2.3605,angle,0
x101,learn,616,L18,learn,-0.38636,0.10352,1,0,0,4.050295,angle,0
x101,learn,617,L10,learn,0,1.84,0,0,1,0.8905,angle,0
x101,learn,618,L17,learn,-0.452544,-0.452544,1,1,1,2.27776,angle,0
x101,learn,619,L24,learn,-0.62,1.07384,0,0,1,2.30889,angle,0
x101,learn,620,L26,learn,-1.07384,0.62,0,0,1,3.923525,angle,0
x101,learn,621,L1,learn,-0.38636,-0.10352,1,1,1,2.464215,angle,0
x101,learn,622,L11,learn,0.64,0,1,1,1,2.02651,angle,0
x101,learn,623,L7,learn,-0.10352,0.38636,1,1,1,3.01507,angle,0
x101,learn,624,L20,learn,0.10352,0.38636,1,1,1,1.675715,angle,0
x101,learn,625,L30,learn,0,-1.84,0,0,1,0.71544,angle,0
x101,learn,626,L29,learn,-1.84,0,0,1,0,3.266355,angle,0
x101,learn,627,L27,learn,1.301064,-1.301064,0,0,1,1.640885,angle,0
x101,learn,628,L6,learn,0.62,-1.07384,0,0,1,8.09335,angle,0
x101,learn,629,L19,learn,-0.10352,-0.38636,1,1,1,1.184655,angle,0
x101,learn,630,L12,learn,0.452544,-0.452544,1,1,1,4.439655,angle,0
x101,learn,631,L14,learn,0.38636,0.10352,1,0,0,1.42261,angle,0
x101,learn,632,L9,learn,0,-0.64,1,1,1,1.46791,angle,0
x101,learn,633,L15,learn,-1.301064,1.301064,0,0,1,1.377715,angle,0
x101,learn,634,L16,learn,0,0.64,1,0,0,1.53781,angle,0
x101,learn,635,L5,learn,1.07384,0.62,0,0,1,0.771815,angle,0
x101,learn,636,L2,learn,0.452544,0.452544,1,1,1,0.93824,angle,0
x101,learn,637,L23,learn,1.301064,1.301064,0,0,1,0.77463,angle,0
x101,learn,638,L8,learn,1.84,0,0,1,0,0.734215,angle,0
x101,learn,639,L25,learn,-1.07384,-0.62,0,0,1,0.88782,angle,0
x101,learn,640,L4,learn,-0.452544,0.452544,1,1,1,1.978765,angle,0
x101,learn,641,L20,learn,0.10352,0.38636,1,1,1,1.27265,angle,0
x101,learn,642,L2,learn,0.452544,0.452544,1,1,1,0.91734,angle,0
x101,learn,643,L3,learn,0.62,1.07384,0,0,1,1.37509,angle,0
x101,learn,644,L18,learn,-0.38636,0.10352,1,1,1,0.88509,angle,0
x101,learn,645,L10,learn,0,1.84,0,0,1,0.618135,angle,0
x101,learn,646,L31,learn,0.38636,-0.10352,1,1,1,1.038835,angle,0
x101,learn,647,L16,learn,0,0.64,1,1,1,1.167965,angle,0
x101,learn,648,L8,learn,1.84,0,0,0,1,1.39353,angle,0
x101,learn,649,L28,learn,-0.64,0,1,1,1,1.386975,angle,0
x101,learn,650,L6,learn,0.62,-1.07384,0,0,1,0.65305,angle,0
x101,learn,651,L22,learn,1.07384,-0.62,0,1,0,1.37302,angle,0
x101,learn,652,L24,learn,-0.62,1.07384,0,0,1,0.93764,angle,0
x101,learn,653,L26,learn,-1.07384,0.62,0,1,0,1.87566,angle,0
x101,learn,654,L30,learn,0,-1.84,0,0,1,0.601315,angle,0
x101,learn,655,L23,learn,1.301064,1.301064,0,0,1,1.976425,angle,0
x101,learn,656,L21,learn,-1.301064,-1.301064,0,0,1,1.004075,angle,0
x101,learn,657,L14,learn,0.38636,0.10352,1,1,1,1.441305,angle,0
x101,learn,658,L32,learn,0.10352,-0.38636,1,1,1,0.923325,angle,0
x101,learn,659,L19,learn,-0.10352,-0.38636,1,1,1,0.73686,angle,0
x101,learn,660,L12,learn,0.452544,-0.452544,1,0,0,0.820155,angle,0
x101,learn,661,L9,learn,0,-0.64,1,1,1,0.837205,angle,0
x101,learn,662,L15,learn,-1.301064,1.301064,0,0,1,0.719785,angle,0
x101,learn,663,L11,learn,0.64,0,1,0,0,1.2216,angle,0
x101,learn,664,L1,learn,-0.38636,-0.10352,1,1,1,1.62273,angle,0
x101,learn,665,L5,learn,1.07384,0.62,0,0,1,0.9992,angle,0
x101,learn,666,L25,learn,-1.07384,-0.62,0,1,0,0.91982,angle,0
x101,learn,667,L17,learn,-0.452544,-0.452544,1,1,1,0.80402,angle,0
x101,learn,668,L27,learn,1.301064,-1.301064,0,0,1,0.767535,angle,0
x101,learn,669,L7,learn,-0.10352,0.38636,1,0,0,3.28454,angle,0
x101,learn,670,L4,learn,-0.452544,0.452544,1,1,1,0.805105,angle,0
x101,learn,671,L29,learn,-1.84,0,0,1,0,0.90301,angle,0
x101,learn,672,L13,learn,-0.62,-1.07384,0,1,0,3.014945,angle,0
x101,learn,673,L27,learn,1.301064,-1.301064,0,0,1,2.223165,angle,0
x101,learn,674,L31,learn,0.38636,-0.10352,1,1,1,0.7789,angle,0
x101,learn,675,L8,learn,1.84,0,0,0,1,2.1279,angle,0
x101,learn,676,L6,learn,0.62,-1.07384,0,1,0,0.823495,angle,0
x101,learn,677,L20,learn,0.10352,0.38636,1,0,0,1.337545,angle,0
x101,learn,678,L32,learn,0.10352,-0.38636,1,1,1,1.454015,angle,0
x101,learn,679,L17,learn,-0.452544,-0.452544,1,1,1,0.841335,angle,0
x101,learn,680,L1,learn,-0.38636,-0.10352,1,1,1,0.651525,angle,0
x101,learn,681,L30,learn,0,-1.84,0,0,1,0.668535,angle,0
x101,learn,682,L13,learn,-0.62,-1.07384,0,0,1,1.625885,angle,0
x101,learn,683,L11,learn,0.64,0,1,1,1,0.872665,angle,0
x101,learn,684,L28,learn,-0.64,0,1,1,1,0.502515,angle,0
x101,learn,685,L21,learn,-1.301064,-1.301064,0,0,1,0.569255,angle,0
x101,learn,686,L19,learn,-0.10352,-0.38636,1,1,1,0.69634,angle,0
x101,learn,687,L18,learn,-0.38636,0.10352,1,0,0,1.677375,angle,0
x101,learn,688,L22,learn,1.07384,-0.62,0,1,0,0.854075,angle,0
x101,learn,689,L10,learn,0,1.84,0,0,1,0.73759,angle,0
x101,learn,690,L14,learn,0.38636,0.10352,1,1,1,0.921985,angle,0
x101,learn,691,L2,learn,0.452544,0.452544,1,0,0,2.165465,angle,0
x101,learn,692,L26,learn,-1.07384,0.62,0,1,0,0.851525,angle,0
x101,learn,693,L24,learn,-0.62,1.07384,0,0,1,0.61977,angle,0
x101,learn,694,L23,learn,1.301064,1.301064,0,0,1,0.618985,angle,0
x101,learn,695,L29,learn,-1.84,0,0,1,0,0.87342,angle,0
x101,learn,696,L16,learn,0,0.64,1,1,1,0.40684,angle,0
x101,learn,697,L25,learn,-1.07384,-0.62,0,0,1,0.988245,angle,0
x101,learn,698,L15,learn,-1.301064,1.301064,0,0,1,0.61504,angle,0
x101,learn,699,L7,learn,-0.10352,0.38636,1,1,1,0.905745,angle,0
x101,learn,700,L4,learn,-0.452544,0.452544,1,1,1,1.088315,angle,0
x101,learn,701,L3,learn,0.62,1.07384,0,0,1,0.684805,angle,0
x101,learn,702,L12,learn,0.452544,-0.452544,1,1,1,3.15915,angle,0
x101,learn,703,L9,learn,0,-0.64,1,1,1,1.060015,angle,0
x101,learn,704,L5,learn,1.07384,0.62,0,0,1,1.30761,angle,0
x101,learn,705,L32,learn,0.10352,-0.38636,1,1,1,1.19006,angle,0
x101,learn,706,L31,learn,0.38636,-0.10352,1,1,1,4.88968,angle,0
x101,learn,707,L19,learn,-0.10352,-0.38636,1,1,1,1.237695,angle,0
x101,learn,708,L1,learn,-0.38636,-0.10352,1,1,1,1.071775,angle,0
x101,learn,709,L14,learn,0.38636,0.10352,1,1,1,0.97343,angle,0
x101,learn,710,L9,learn,0,-0.64,1,1,1,2.766085,angle,0
x101,learn,711,L16,learn,0,0.64,1,0,0,1.604945,angle,0
x101,learn,712,L29,learn,-1.84,0,0,0,1,1.220315,angle,0
x101,learn,713,L2,learn,0.452544,0.452544,1,0,0,1.711065,angle,0
x101,learn,714,L18,learn,-0.38636,0.10352,1,1,1,0.7518,angle,0
x101,learn,715,L23,learn,1.301064,1.301064,0,0,1,0.718095,angle,0
x101,learn,716,L10,learn,0,1.84,0,0,1,0.56988,angle,0
x101,learn,717,L4,learn,-0.452544,0.452544,1,1,1,1.79428,angle,0
x101,learn,718,L20,learn,0.10352,0.38636,1,1,1,0.63453,angle,0
x101,learn,719,L5,learn,1.07384,0.62,0,1,0,1.41944,angle,0
x101,learn,720,L25,learn,-1.07384,-0.62,0,1,0,1.373255,angle,0
x101,learn,721,L6,learn,0.62,-1.07384,0,0,1,1.063895,angle,0
x101,learn,722,L26,learn,-1.07384,0.62,0,0,1,0.78929,angle,0
x101,learn,723,L17,learn,-0.452544,-0.452544,1,1,1,0.86694,angle,0
x101,learn,724,L27,learn,1.301064,-1.301064,0,0,1,0.854265,angle,0
x101,learn,725,L8,learn,1.84,0,0,0,1,0.90811,angle,0
x101,learn,726,L28,learn,-0.64,0,1,1,1,0.882995,angle,0
x101,learn,727,L3,learn,0.62,1.07384,0,0,1,0.719505,angle,0
x101,learn,728,L30,learn,0,-1.84,0,0,1,0.669175,angle,0
x101,learn,729,L13,learn,-0.62,-1.07384,0,0,1,0.87059,angle,0
x101,learn,730,L22,learn,1.07384,-0.62,0,1,0,1.03959,angle,0
x101,learn,731,L11,learn,0.64,0,1,1,1,0.633145,angle,0
x101,learn,732,L21,learn,-1.301064,-1.301064,0,0,1,1.12551,angle,0
x101,learn,733,L24,learn,-0.62,1.07384,0,0,1,0.635765,angle,0
x101,learn,734,L12,learn,0.452544,-0.452544,1,1,1,1.121455,angle,0
x101,learn,735,L7,learn,-0.10352,0.38636,1,0,0,0.74844,angle,0
x101,learn,736,L15,learn,-1.301064,1.301064,0,0,1,0.712935,angle,0
x101,learn,737,L15,learn,-1.301064,1.301064,0,0,1,0.625345,angle,0
x101,learn,738,L8,learn,1.84,0,0,1,0,0.70318,angle,0
x101,learn,739,L18,learn,-0.38636,0.10352,1,1,1,0.434385,angle,0
x101,learn,740,L11,learn,0.64,0,1,1,1,0.630425,angle,0
x101,learn,741,L27,learn,1.301064,-1.301064,0,0,1,0.75372,angle,0
x101,learn,742,L16,learn,0,0.64,1,0,0,1.121,angle,0
x101,learn,743,L13,learn,-0.62,-1.07384,0,0,1,0.97633,angle,0
x101,learn,744,L30,learn,0,-1.84,0,0,1,0.63162,angle,0
x101,learn,745,L12,learn,0.452544,-0.452544,1,1,1,0.686575,angle,0
x101,learn,746,L26,learn,-1.07384,0.62,0,0,1,0.75432,angle,0
x101,learn,747,L2,learn,0.452544,0.452544,1,0,0,1.00552,angle,0
x101,learn,748,L6,learn,0.62,-1.07384,0,1,0,0.872425,angle,0
x101,learn,749,L19,learn,-0.10352,-0.38636,1,1,1,0.85613,angle,0
x101,learn,750,L4,learn,-0.452544,0.452544,1,0,0,0.68849,angle,0
x101,learn,751,L29,learn,-1.84,0,0,0,1,3.51816,angle,0
x101,learn,752,L24,learn,-0.62,1.07384,0,0,1,0.83925,angle,0
x101,learn,753,L25,learn,-1.07384,-0.62,0,1,0,2.796315,angle,0
x101,learn,754,L21,learn,-1.301064,-1.301064,0,0,1,0.88017,angle,0
x101,learn,755,L20,learn,0.10352,0.38636,1,0,0,1.52358,angle,0
x101,learn,756,L5,learn,1.07384,0.62,0,0,1,0.70288,angle,0
x101,learn,757,L14,learn,0.38636,0.10352,1,1,1,1.22211,angle,0
x101,learn,758,L7,learn,-0.10352,0.38636,1,1,1,0.5541,angle,0
x101,learn,759,L9,learn,0,-0.64,1,1,1,0.43452,angle,0
x101,learn,760,L10,learn,0,1.84,0,0,1,0.688215,angle,0
x101,learn,761,L23,learn,1.301064,1.301064,0,0,1,0.790895,angle,0
x101,learn,762,L22,learn,1.07384,-0.62,0,1,0,0.683515,angle,0
x101,learn,763,L28,learn,-0.64,0,1,1,1,0.38788,angle,0
x101,learn,764,L1,learn,-0.38636,-0.10352,1,1,1,0.624375,angle,0
x101,learn,765,L31,learn,0.38636,-0.10352,1,1,1,1.065905,angle,0
x101,learn,766,L17,learn,-0.452544,-0.452544,1,1,1,0.68626,angle,0
x101,learn,767,L3,learn,0.62,1.07384,0,0,1,0.748015,angle,0
x101,learn,768,L32,learn,0.10352,-0.38636,1,1,1,0.786055,angle,0
x101,learn,769,L27,learn,1.301064,-1.301064,0,0,1,1.35852,angle,0
x101,learn,770,L18,learn,-0.38636,0.10352,1,1,1,1.220015,angle,0
x101,learn,771,L28,learn,-0.64,0,1,1,1,0.789355,angle,0
x101,learn,772,L4,learn,-0.452544,0.452544,1,1,1,0.75224,angle,0
x101,learn,773,L2,learn,0.452544,0.452544,1,1,1,0.93838,angle,0
x101,learn,774,L20,learn,0.10352,0.38636,1,1,1,0.669255,angle,0
x101,learn,775,L19,learn,-0.10352,-0.38636,1,1,1,1.058625,angle,0
x101,learn,776,L29,learn,-1.84,0,0,1,0,2.76366,angle,0
x101,learn,777,L31,learn,0.38636,-0.10352,1,1,1,1.05477,angle,0
x101,learn,778,L30,learn,0,-1.84,0,0,1,0.687305,angle,0
x101,learn,779,L17,learn,-0.452544,-0.452544,1,1,1,0.804855,angle,0
x101,learn,780,L24,learn,-0.62,1.07384,0,0,1,0.655655,angle,0
x101,learn,781,L1,learn,-0.38636,-0.10352,1,1,1,0.8368,angle,0
x101,learn,782,L15,learn,-1.301064,1.301064,0,0,1,1.038535,angle,0
x101,learn,783,L32,learn,0.10352,-0.38636,1,1,1,0.974965,angle,0
x101,learn,784,L22,learn,1.07384,-0.62,0,1,0,1.242485,angle,0
x101,learn,785,L10,learn,0,1.84,0,0,1,0.65075,angle,0
x101,learn,786,L16,learn,0,0.64,1,1,1,0.946495,angle,0
x101,learn,787,L25,learn,-1.07384,-0.62,0,1,0,0.83531,angle,0
x101,learn,788,L6,learn,0.62,-1.07384,0,1,0,0.907215,angle,0
x101,learn,789,L11,learn,0.64,0,1,1,1,4.25099,angle,0
x101,learn,790,L9,learn,0,-0.64,1,1,1,0.802805,angle,0
x101,learn,791,L8,learn,1.84,0,0,0,1,1.10518,angle,0
x101,learn,792,L14,learn,0.38636,0.10352,1,1,1,1.205215,angle,0
x101,learn,793,L23,learn,1.301064,1.301064,0,0,1,0.680115,angle,0
x101,learn,794,L26,learn,-1.07384,0.62,0,0,1,2.063745,angle,0
x101,learn,795,L3,learn,0.62,1.07384,0,0,1,0.61807,angle,0
x101,learn,796,L13,learn,-0.62,-1.07384,0,0,1,2.04309,angle,0
x101,learn,797,L12,learn,0.452544,-0.452544,1,1,1,0.93112,angle,0
x101,learn,798,L5,learn,1.07384,0.62,0,0,1,1.120045,angle,0
x101,learn,799,L7,learn,-0.10352,0.38636,1,0,0,0.75775,angle,0
x101,learn,800,L21,learn,-1.301064,-1.301064,0,0,1,0.73934,angle,0
x101,learn,801,L24,learn,-0.62,1.07384,0,0,1,1.715835,angle,0
x101,learn,802,L10,learn,0,1.84,0,0,1,0.70802,angle,0
x101,learn,803,L27,learn,1.301064,-1.301064,0,0,1,1.054245,angle,0
x101,learn,804,L32,learn,0.10352,-0.38636,1,1,1,1.35815,angle,0
x101,learn,805,L7,learn,-0.10352,0.38636,1,1,1,1.15598,angle,0
x101,learn,806,L22,learn,1.07384,-0.62,0,1,0,0.98576,angle,0
x101,learn,807,L3,learn,0.62,1.07384,0,0,1,0.66619,angle,0
x101,learn,808,L11,learn,0.64,0,1,1,1,1.457735,angle,0
x101,learn,809,L15,learn,-1.301064,1.301064,0,0,1,0.68999,angle,0
x101,learn,810,L30,learn,0,-1.84,0,0,1,0.672305,angle,0
x101,learn,811,L2,learn,0.452544,0.452544,1,1,1,2.53034,angle,0
x101,learn,812,L25,learn,-1.07384,-0.62,0,1,0,1.072135,angle,0
x101,learn,813,L14,learn,0.38636,0.10352,1,1,1,0.368435,angle,0
x101,learn,814,L28,learn,-0.64,0,1,1,1,0.68617,angle,0
x101,learn,815,L18,learn,-0.38636,0.10352,1,1,1,0.822585,angle,0
x101,learn,816,L20,learn,0.10352,0.38636,1,1,1,1.04868,angle,0
x101,learn,817,L6,learn,0.62,-1.07384,0,1,0,1.256485,angle,0
x101,learn,818,L17,learn,-0.452544,-0.452544,1,1,1,1.019925,angle,0
x101,learn,819,L9,learn,0,-0.64,1,1,1,0.669055,angle,0
x101,learn,820,L13,learn,-0.62,-1.07384,0,1,0,0.668905,angle,0
x101,learn,821,L16,learn,0,0.64,1,0,0,0.932335,angle,0
x101,learn,822,L31,learn,0.38636,-0.10352,1,0,0,0.702745,angle,0
x101,learn,823,L21,learn,-1.301064,-1.301064,0,0,1,0.632325,angle,0
x101,learn,824,L26,learn,-1.07384,0.62,0,0,1,0.892445,angle,0
x101,learn,825,L29,learn,-1.84,0,0,0,1,0.748205,angle,0
x101,learn,826,L1,learn,-0.38636,-0.10352,1,1,1,0.821375,angle,0
x101,learn,827,L19,learn,-0.10352,-0.38636,1,1,1,0.45143,angle,0
x101,learn,828,L12,learn,0.452544,-0.452544,1,1,1,0.553365,angle,0
x101,learn,829,L8,learn,1.84,0,0,1,0,2.09369,angle,0
x101,learn,830,L4,learn,-0.452544,0.452544,1,0,0,1.15776,angle,0
x101,learn,831,L23,learn,1.301064,1.301064,0,0,1,0.570385,angle,0
x101,learn,832,L5,learn,1.07384,0.62,0,1,0,0.763615,angle,0
x101,learn,833,L9,learn,0,-0.64,1,0,0,1.131885,angle,0
x101,learn,834,L12,learn,0.452544,-0.452544,1,1,1,1.25668,angle,0
x101,learn,835,L3,learn,0.62,1.07384,0,0,1,0.568785,angle,0
x101,learn,836,L24,learn,-0.62,1.07384,0,0,1,0.88145,angle,0
x101,learn,837,L23,learn,1.301064,1.301064,0,0,1,0.805805,angle,0
x101,learn,838,L26,learn,-1.07384,0.62,0,1,0,0.93695,angle,0
x101,learn,839,L10,learn,0,1.84,0,0,1,0.61913,angle,0
x101,learn,840,L30,learn,0,-1.84,0,1,0,0.97292,angle,0
x101,learn,841,L5,learn,1.07384,0.62,0,0,1,1.602075,angle,0
x101,learn,842,L8,learn,1.84,0,0,1,0,0.8705,angle,0
x101,learn,843,L18,learn,-0.38636,0.10352,1,1,1,0.67551,angle,0
x101,learn,844,L6,learn,0.62,-1.07384,0,0,1,0.686565,angle,0
x101,learn,845,L32,learn,0.10352,-0.38636,1,1,1,1.422975,angle,0
x101,learn,846,L15,learn,-1.301064,1.301064,0,0,1,0.80372,angle,0
x101,learn,847,L19,learn,-0.10352,-0.38636,1,0,0,1.157875,angle,0
x101,learn,848,L7,learn,-0.10352,0.38636,1,1,1,1.79183,angle,0
x101,learn,849,L16,learn,0,0.64,1,1,1,0.595135,angle,0
x101,learn,850,L29,learn,-1.84,0,0,1,0,1.004085,angle,0
x101,learn,851,L17,learn,-0.452544,-0.452544,1,1,1,1.006875,angle,0
x101,learn,852,L13,learn,-0.62,-1.07384,0,1,0,0.80198,angle,0
x101,learn,853,L31,learn,0.38636,-0.10352,1,1,1,0.81978,angle,0
x101,learn,854,L22,learn,1.07384,-0.62,0,0,1,2.042785,angle,0
x101,learn,855,L25,learn,-1.07384,-0.62,0,1,0,0.952985,angle,0
x101,learn,856,L27,learn,1.301064,-1.301064,0,0,1,0.77153,angle,0
x101,learn,857,L21,learn,-1.301064,-1.301064,0,0,1,0.604385,angle,0
x101,learn,858,L14,learn,0.38636,0.10352,1,1,1,0.856305,angle,0
x101,learn,859,L20,learn,0.10352,0.38636,1,1,1,0.63757,angle,0
x101,learn,860,L2,learn,0.452544,0.452544,1,1,1,0.61924,angle,0
x101,learn,861,L1,learn,-0.38636,-0.10352,1,1,1,0.468085,angle,0
x101,learn,862,L11,learn,0.64,0,1,1,1,0.484485,angle,0
x101,learn,863,L4,learn,-0.452544,0.452544,1,1,1,0.67249,angle,0
x101,learn,864,L28,learn,-0.64,0,1,1,1,0.80164,angle,0
x101,learn,865,L8,learn,1.84,0,0,0,1,1.344885,angle,0
x101,learn,866,L12,learn,0.452544,-0.452544,1,1,1,1.036365,angle,0
x101,learn,867,L13,learn,-0.62,-1.07384,0,1,0,0.847995,angle,0
x101,learn,868,L29,learn,-1.84,0,0,1,0,0.98826,angle,0
x101,learn,869,L11,learn,0.64,0,1,1,1,6.79739,angle,0
x101,learn,870,L22,learn,1.07384,-0.62,0,1,0,1.04053,angle,0
x101,learn,871,L24,learn,-0.62,1.07384,0,0,1,0.54162,angle,0
x101,learn,872,L17,learn,-0.452544,-0.452544,1,1,1,2.243845,angle,0
x101,learn,873,L1,learn,-0.38636,-0.10352,1,1,1,3.42718,angle,0
x101,learn,874,L31,learn,0.38636,-0.10352,1,1,1,0.75167,angle,0
x101,learn,875,L20,learn,0.10352,0.38636,1,1,1,0.853615,angle,0
x101,learn,876,L3,learn,0.62,1.07384,0,0,1,1.29227,angle,0
x101,learn,877,L27,learn,1.301064,-1.301064,0,0,1,1.202005,angle,0
x101,learn,878,L15,learn,-1.301064,1.301064,0,0,1,3.771475,angle,0
x101,learn,879,L30,learn,0,-1.84,0,0,1,3.442555,angle,0
x101,learn,880,L21,learn,-1.301064,-1.301064,0,0,1,5.020505,angle,0
x101,learn,881,L10,learn,0,1.84,0,0,1,1.402705,angle,0
x101,learn,882,L26,learn,-1.07384,0.62,0,0,1,2.779455,angle,0
x101,learn,883,L32,learn,0.10352,-0.38636,1,1,1,2.071555,angle,0
x101,learn,884,L14,learn,0.38636,0.10352,1,0,0,3.720025,angle,0
x101,learn,885,L23,learn,1.301064,1.301064,0,0,1,0.638505,angle,0
x101,learn,886,L4,learn,-0.452544,0.452544,1,1,1,2.659615,angle,0
x101,learn,887,L7,learn,-0.10352,0.38636,1,1,1,1.726765,angle,0
x101,learn,888,L19,learn,-0.10352,-0.38636,1,1,1,1.161975,angle,0
x101,learn,889,L5,learn,1.07384,0.62,0,1,0,1.30307,angle,0
x101,learn,890,L6,learn,0.62,-1.07384,0,0,1,1.003775,angle,0
x101,learn,891,L2,learn,0.452544,0.452544,1,0,0,0.891025,angle,0
x101,learn,892,L18,learn,-0.38636,0.10352,1,1,1,1.139635,angle,0
x101,learn,893,L16,learn,0,0.64,1,0,0,0.86502,angle,0
x101,learn,894,L9,learn,0,-0.64,1,1,1,1.39191,angle,0
x101,learn,895,L28,learn,-0.64,0,1,1,1,1.189685,angle,0
x101,learn,896,L25,learn,-1.07384,-0.62,0,1,0,0.831245,angle,0
x101,learn,897,L32,learn,0.10352,-0.38636,1,1,1,0.602735,angle,0
x101,learn,898,L21,learn,-1.301064,-1.301064,0,0,1,1.999235,angle,0
x101,learn,899,L23,learn,1.301064,1.301064,0,0,1,1.77122,angle,0
x101,learn,900,L7,learn,-0.10352,0.38636,1,1,1,0.921655,angle,0
x101,learn,901,L19,learn,-0.10352,-0.38636,1,0,0,0.884835,angle,0
x101,learn,902,L11,learn,0.64,0,1,1,1,0.770525,angle,0
x101,learn,903,L18,learn,-0.38636,0.10352,1,1,1,2.19621,angle,0
x101,learn,904,L13,learn,-0.62,-1.07384,0,0,1,0.73188,angle,0
x101,learn,905,L16,learn,0,0.64,1,0,0,1.22211,angle,0
x101,learn,906,L15,learn,-1.301064,1.301064,0,0,1,0.50292,angle,0
x101,learn,907,L20,learn,0.10352,0.38636,1,1,1,0.73242,angle,0
x101,learn,908,L3,learn,0.62,1.07384,0,0,1,0.62263,angle,0
x101,learn,909,L29,learn,-1.84,0,0,1,0,0.668885,angle,0
x101,learn,910,L6,learn,0.62,-1.07384,0,0,1,0.75141,angle,0
x101,learn,911,L1,learn,-0.38636,-0.10352,1,1,1,0.690875,angle,0
x101,learn,912,L5,learn,1.07384,0.62,0,0,1,0.90437,angle,0
x101,learn,913,L2,learn,0.452544,0.452544,1,0,0,0.990035,angle,0
x101,learn,914,L25,learn,-1.07384,-0.62,0,1,0,1.97667,angle,0
x101,learn,915,L17,learn,-0.452544,-0.452544,1,1,1,0.74836,angle,0
x101,learn,916,L14,learn,0.38636,0.10352,1,1,1,0.6041,angle,0
x101,learn,917,L30,learn,0,-1.84,0,0,1,0.633535,angle,0
x101,learn,918,L22,learn,1.07384,-0.62,0,0,1,7.33574,angle,0
x101,learn,919,L4,learn,-0.452544,0.452544,1,0,0,1.39091,angle,0
x101,learn,920,L26,learn,-1.07384,0.62,0,0,1,1.63669,angle,0
x101,learn,921,L31,learn,0.38636,-0.10352,1,1,1,1.689545,angle,0
x101,learn,922,L24,learn,-0.62,1.07384,0,0,1,1.45739,angle,0
x101,learn,923,L8,learn,1.84,0,0,1,0,1.78723,angle,0
x101,learn,924,L10,learn,0,1.84,0,0,1,0.61234,angle,0
x101,learn,925,L28,learn,-0.64,0,1,1,1,0.684275,angle,0
x101,learn,926,L27,learn,1.301064,-1.301064,0,0,1,6.593475,angle,0
x101,learn,927,L9,learn,0,-0.64,1,1,1,0.87016,angle,0
x101,learn,928,L12,learn,0.452544,-0.452544,1,1,1,0.885475,angle,0
x101,learn,929,L24,learn,-0.62,1.07384,0,0,1,0.73645,angle,0
x101,learn,930,L19,learn,-0.10352,-0.38636,1,1,1,0.68759,angle,0
x101,learn,931,L12,learn,0.452544,-0.452544,1,1,1,1.540315,angle,0
x101,learn,932,L18,learn,-0.38636,0.10352,1,1,1,0.73338,angle,0
x101,learn,933,L7,learn,-0.10352,0.38636,1,1,1,0.519785,angle,0
x101,learn,934,L31,learn,0.38636,-0.10352,1,1,1,0.62212,angle,0
x101,learn,935,L22,learn,1.07384,-0.62,0,1,0,0.70388,angle,0
x101,learn,936,L32,learn,0.10352,-0.38636,1,1,1,0.751865,angle,0
x101,learn,937,L5,learn,1.07384,0.62,0,0,1,0.640595,angle,0
x101,learn,938,L26,learn,-1.07384,0.62,0,0,1,0.518485,angle,0
x101,learn,939,L4,learn,-0.452544,0.452544,1,0,0,0.868535,angle,0
x101,learn,940,L2,learn,0.452544,0.452544,1,1,1,0.95569,angle,0
x101,learn,941,L1,learn,-0.38636,-0.10352,1,1,1,0.970185,angle,0
x101,learn,942,L28,learn,-0.64,0,1,1,1,0.587245,angle,0
x101,learn,943,L6,learn,0.62,-1.07384,0,0,1,0.67053,angle,0
x101,learn,944,L20,learn,0.10352,0.38636,1,1,1,0.63519,angle,0
x101,learn,945,L9,learn,0,-0.64,1,1,1,0.86945,angle,0
x101,learn,946,L30,learn,0,-1.84,0,0,1,0.55539,angle,0
x101,learn,947,L16,learn,0,0.64,1,1,1,0.806045,angle,0
x101,learn,948,L15,learn,-1.301064,1.301064,0,0,1,0.685345,angle,0
x101,learn,949,L17,learn,-0.452544,-0.452544,1,1,1,0.652045,angle,0
x101,learn,950,L8,learn,1.84,0,0,0,1,1.10477,angle,0
x101,learn,951,L29,learn,-1.84,0,0,0,1,2.12489,angle,0
x101,learn,952,L11,learn,0.64,0,1,1,1,1.18755,angle,0
x101,learn,953,L13,learn,-0.62,-1.07384,0,0,1,0.756,angle,0
x101,learn,954,L25,learn,-1.07384,-0.62,0,1,0,1.326755,angle,0
x101,learn,955,L3,learn,0.62,1.07384,0,0,1,1.440135,angle,0
x101,learn,956,L10,learn,0,1.84,0,0,1,0.90575,angle,0
x101,learn,957,L21,learn,-1.301064,-1.301064,0,0,1,1.15394,angle,0
x101,learn,958,L27,learn,1.301064,-1.301064,0,0,1,0.73722,angle,0
x101,learn,959,L23,learn,1.301064,1.301064,0,0,1,0.704385,angle,0
x101,learn,960,L14,learn,0.38636,0.10352,1,1,1,0.68598,angle,0
x101,learn,961,L26,learn,-1.07384,0.62,0,1,0,0.98939,angle,0
x101,learn,962,L14,learn,0.38636,0.10352,1,1,1,0.714405,angle,0
x101,learn,963,L8,learn,1.84,0,0,0,1,0.854975,angle,0
x101,learn,964,L20,learn,0.10352,0.38636,1,1,1,2.411585,angle,0
x101,learn,965,L27,learn,1.301064,-1.301064,0,0,1,0.737525,angle,0
x101,learn,966,L24,learn,-0.62,1.07384,0,0,1,0.71997,angle,0
x101,learn,967,L19,learn,-0.10352,-0.38636,1,1,1,0.92756,angle,0
x101,learn,968,L6,learn,0.62,-1.07384,0,1,0,1.08834,angle,0
x101,learn,969,L23,learn,1.301064,1.301064,0,0,1,0.636345,angle,0
x101,learn,970,L5,learn,1.07384,0.62,0,1,0,0.93572,angle,0
x101,learn,971,L9,learn,0,-0.64,1,1,1,1.08907,angle,0
x101,learn,972,L13,learn,-0.62,-1.07384,0,1,0,0.902425,angle,0
x101,learn,973,L32,learn,0.10352,-0.38636,1,1,1,0.5203,angle,0
x101,learn,974,L4,learn,-0.452544,0.452544,1,1,1,1.13716,angle,0
x101,learn,975,L7,learn,-0.10352,0.38636,1,1,1,0.803975,angle,0
x101,learn,976,L30,learn,0,-1.84,0,0,1,0.635845,angle,0
x101,learn,977,L1,learn,-0.38636,-0.10352,1,1,1,0.75727,angle,0
x101,learn,978,L21,learn,-1.301064,-1.301064,0,0,1,1.924105,angle,0
x101,learn,979,L25,learn,-1.07384,-0.62,0,1,0,0.704305,angle,0
x101,learn,980,L28,learn,-0.64,0,1,1,1,1.17389,angle,0
x101,learn,981,L3,learn,0.62,1.07384,0,0,1,0.578885,angle,0
x101,learn,982,L29,learn,-1.84,0,0,1,0,2.946785,angle,0
x101,learn,983,L31,learn,0.38636,-0.10352,1,1,1,0.836285,angle,0
x101,learn,984,L22,learn,1.07384,-0.62,0,0,1,1.27214,angle,0
x101,learn,985,L18,learn,-0.38636,0.10352,1,1,1,1.149175,angle,0
x101,learn,986,L11,learn,0.64,0,1,1,1,1.0568,angle,0
x101,learn,987,L12,learn,0.452544,-0.452544,1,1,1,0.817745,angle,0
x101,learn,988,L2,learn,0.452544,0.452544,1,0,0,0.943975,angle,0
x101,learn,989,L15,learn,-1.301064,1.301064,0,0,1,0.467515,angle,0
x101,learn,990,L16,learn,0,0.64,1,1,1,1.12156,angle,0
x101,learn,991,L10,learn,0,1.84,0,0,1,0.886655,angle,0
x101,learn,992,L17,learn,-0.452544,-0.452544,1,1,1,1.07136,angle,0
x101,learn,993,L5,learn,1.07384,0.62,0,0,1,0.816765,angle,0
x101,learn,994,L1,learn,-0.38636,-0.10352,1,1,1,0.83373,angle,0
x101,learn,995,L14,learn,0.38636,0.10352,1,1,1,1.48968,angle,0
x101,learn,996,L12,learn,0.452544,-0.452544,1,1,1,1.11061,angle,0
x101,learn,997,L6,learn,0.62,-1.07384,0,0,1,1.14762,angle,0
x101,learn,998,L25,learn,-1.07384,-0.62,0,1,0,1.00531,angle,0
x101,learn,999,L29,learn,-1.84,0,0,1,0,0.94322,angle,0
x101,learn,1000,L31,learn,0.38636,-0.10352,1,1,1,0.68517,angle,0
x101,learn,1001,L16,learn,0,0.64,1,0,0,1.272925,angle,0
x101,learn,1002,L32,learn,0.10352,-0.38636,1,1,1,0.401435,angle,0
x101,learn,1003,L26,learn,-1.07384,0.62,0,1,0,0.014655,angle,0
x101,learn,1004,L18,learn,-0.38636,0.10352,1,1,1,0.03252,angle,0
x101,learn,1005,L13,learn,-0.62,-1.07384,0,0,1,0.167095,angle,0
x101,learn,1006,L10,learn,0,1.84,0,1,0,0.251315,angle,0
x101,learn,1007,L9,learn,0,-0.64,1,1,1,0.000575,angle,0
x101,learn,1008,L3,learn,0.62,1.07384,0,1,0,0.133345,angle,0
x101,learn,1009,L8,learn,1.84,0,0,0,1,0.01748,angle,0
x101,learn,1010,L17,learn,-0.452544,-0.452544,1,1,1,0.10013,angle,0
x101,learn,1011,L30,learn,0,-1.84,0,0,1,0.101045,angle,0
x101,learn,1012,L28,learn,-0.64,0,1,1,1,0.018245,angle,0
x101,learn,1013,L21,learn,-1.301064,-1.301064,0,0,1,0.051125,angle,0
x101,learn,1014,L2,learn,0.452544,0.452544,1,0,0,0.049695,angle,0
x101,learn,1015,L19,learn,-0.10352,-0.38636,1,1,1,0.00063,angle,0
x101,learn,1016,L24,learn,-0.62,1.07384,0,0,1,0.10015,angle,0
x101,learn,1017,L4,learn,-0.452544,0.452544,1,1,1,0.11782,angle,0
x101,learn,1018,L20,learn,0.10352,0.38636,1,0,0,0.049995,angle,0
x101,learn,1019,L7,learn,-0.10352,0.38636,1,1,1,0.09856,angle,0
x101,learn,1020,L11,learn,0.64,0,1,0,0,0.0163,angle,0
x101,learn,1021,L23,learn,1.301064,1.301064,0,1,0,0.00454,angle,0
x101,learn,1022,L15,learn,-1.301064,1.301064,0,0,1,0.08466,angle,0
x101,learn,1023,L22,learn,1.07384,-0.62,0,0,1,0.03848,angle,0
x101,learn,1024,L27,learn,1.301064,-1.301064,0,0,1,0.1019,angle,0
x101,learn,1025,L10,learn,0,1.84,0,1,0,0.052865,angle,0
x101,learn,1026,L4,learn,-0.452544,0.452544,1,0,0,0.111825,angle,0
x101,learn,1027,L19,learn,-0.10352,-0.38636,1,1,1,0.189615,angle,0
x101,learn,1028,L1,learn,-0.38636,-0.10352,1,1,1,0.058785,angle,0
x101,learn,1029,L31,learn,0.38636,-0.10352,1,1,1,0.07685,angle,0
x101,learn,1030,L27,learn,1.301064,-1.301064,0,1,0,0.12026,angle,0
x101,learn,1031,L9,learn,0,-0.64,1,1,1,0.014715,angle,0
x101,learn,1032,L7,learn,-0.10352,0.38636,1,1,1,0.16026,angle,0
x101,learn,1033,L8,learn,1.84,0,0,0,1,0.09644,angle,0
x101,learn,1034,L15,learn,-1.301064,1.301064,0,1,0,0.13017,angle,0
x101,learn,1035,L6,learn,0.62,-1.07384,0,1,0,0.11709,angle,0
x101,learn,1036,L5,learn,1.07384,0.62,0,1,0,0.183265,angle,0
x101,learn,1037,L18,learn,-0.38636,0.10352,1,1,1,0.48429,angle,0
x101,learn,1038,L20,learn,0.10352,0.38636,1,1,1,0.57309,angle,0
x101,learn,1039,L11,learn,0.64,0,1,1,1,0.050195,angle,0
x101,learn,1040,L16,learn,0,0.64,1,1,1,0.31785,angle,0
x101,learn,1041,L32,learn,0.10352,-0.38636,1,0,0,0.167035,angle,0
x101,learn,1042,L24,learn,-0.62,1.07384,0,1,0,0.05053,angle,0
x101,learn,1043,L21,learn,-1.301064,-1.301064,0,0,1,0.624635,angle,0
x101,learn,1044,L30,learn,0,-1.84,0,0,1,0.520635,angle,0
x101,learn,1045,L28,learn,-0.64,0,1,0,0,0.90352,angle,0
x101,learn,1046,L25,learn,-1.07384,-0.62,0,1,0,1.035355,angle,0
x101,learn,1047,L14,learn,0.38636,0.10352,1,1,1,0.802945,angle,0
x101,learn,1048,L17,learn,-0.452544,-0.452544,1,1,1,0.40737,angle,0
x101,learn,1049,L12,learn,0.452544,-0.452544,1,1,1,0.384205,angle,0
x101,learn,1050,L29,learn,-1.84,0,0,0,1,1.919295,angle,0
x101,learn,1051,L26,learn,-1.07384,0.62,0,0,1,1.74068,angle,0
x101,learn,1052,L13,learn,-0.62,-1.07384,0,0,1,0.132715,angle,0
x101,learn,1053,L23,learn,1.301064,1.301064,0,0,1,0.71944,angle,0
x101,learn,1054,L2,learn,0.452544,0.452544,1,0,0,0.538255,angle,0
x101,learn,1055,L3,learn,0.62,1.07384,0,1,0,0.172945,angle,0
x101,learn,1056,L22,learn,1.07384,-0.62,0,0,1,0.046995,angle,0
x101,learn,1057,L32,learn,0.10352,-0.38636,1,0,0,0.13394,angle,0
x101,learn,1058,L9,learn,0,-0.64,1,0,0,0.11585,angle,0
x101,learn,1059,L24,learn,-0.62,1.07384,0,0,1,0.08281,angle,0
x101,learn,1060,L23,learn,1.301064,1.301064,0,1,0,0.034415,angle,0
x101,learn,1061,L12,learn,0.452544,-0.452544,1,0,0,0.0112,angle,0
x101,learn,1062,L8,learn,1.84,0,0,0,1,0.0502,angle,0
x101,learn,1063,L26,learn,-1.07384,0.62,0,1,0,0.082105,angle,0
x101,learn,1064,L19,learn,-0.10352,-0.38636,1,0,0,0.0999,angle,0
x101,learn,1065,L14,learn,0.38636,0.10352,1,1,1,0.03434,angle,0
x101,learn,1066,L27,learn,1.301064,-1.301064,0,0,1,0.001,angle,0
x101,learn,1067,L5,learn,1.07384,0.62,0,1,0,0.030045,angle,0
x101,learn,1068,L4,learn,-0.452544,0.452544,1,0,0,0.066825,angle,0
x101,learn,1069,L15,learn,-1.301064,1.301064,0,1,0,0.08382,angle,0
x101,learn,1070,L6,learn,0.62,-1.07384,0,0,1,0.16445,angle,0
x101,learn,1071,L30,learn,0,-1.84,0,0,1,0.03216,angle,0
x101,learn,1072,L28,learn,-0.64,0,1,0,0,0.092855,angle,0
x101,learn,1073,L7,learn,-0.10352,0.38636,1,0,0,0.10527,angle,0
x101,learn,1074,L13,learn,-0.62,-1.07384,0,0,1,0.07102,angle,0
x101,learn,1075,L20,learn,0.10352,0.38636,1,0,0,0.03089,angle,0
x101,learn,1076,L18,learn,-0.38636,0.10352,1,0,0,0.18358,angle,0
x101,learn,1077,L11,learn,0.64,0,1,0,0,0.13308,angle,0
x101,learn,1078,L16,learn,0,0.64,1,0,0,0.167355,angle,0
x101,learn,1079,L31,learn,0.38636,-0.10352,1,1,1,0.117105,angle,0
x101,learn,1080,L29,learn,-1.84,0,0,0,1,0.00064,angle,0
x101,learn,1081,L10,learn,0,1.84,0,1,0,0.11631,angle,0
x101,learn,1082,L1,learn,-0.38636,-0.10352,1,0,0,0.13382,angle,0
x101,learn,1083,L22,learn,1.07384,-0.62,0,1,0,0.134175,angle,0
x101,learn,1084,L2,learn,0.452544,0.452544,1,0,0,0.11683,angle,0
x101,learn,1085,L25,learn,-1.07384,-0.62,0,1,0,0.16163,angle,0
x101,learn,1086,L3,learn,0.62,1.07384,0,0,1,0.19586,angle,0
x101,learn,1087,L17,learn,-0.452544,-0.452544,1,1,1,0.01795,angle,0
x101,learn,1088,L21,learn,-1.301064,-1.301064,0,0,1,0.037575,angle,0
x101,learn,1089,L19,learn,-0.10352,-0.38636,1,1,1,0.000545,angle,0
x101,learn,1090,L32,learn,0.10352,-0.38636,1,0,0,0.0934,angle,0
x101,learn,1091,L22,learn,1.07384,-0.62,0,1,0,0.15338,angle,0
x101,learn,1092,L6,learn,0.62,-1.07384,0,0,1,0.069325,angle,0
x101,learn,1093,L29,learn,-1.84,0,0,0,1,0.067625,angle,0
x101,learn,1094,L11,learn,0.64,0,1,1,1,0.955345,angle,0
x101,learn,1095,L28,learn,-0.64,0,1,1,1,0.28442,angle,0
x101,learn,1096,L15,learn,-1.301064,1.301064,0,1,0,0.33337,angle,0
x101,learn,1097,L8,learn,1.84,0,0,0,1,0.87012,angle,0
x101,learn,1098,L24,learn,-0.62,1.07384,0,0,1,0.55217,angle,0
x101,learn,1099,L9,learn,0,-0.64,1,1,1,1.540085,angle,0
x101,learn,1100,L3,learn,0.62,1.07384,0,0,1,0.58512,angle,0
x101,learn,1101,L1,learn,-0.38636,-0.10352,1,1,1,9.29568,angle,0
x101,learn,1102,L16,learn,0,0.64,1,0,0,1.03823,angle,0
x101,learn,1103,L7,learn,-0.10352,0.38636,1,1,1,0.75582,angle,0
x101,learn,1104,L17,learn,-0.452544,-0.452544,1,1,1,0.76252,angle,0
x101,learn,1105,L2,learn,0.452544,0.452544,1,0,0,0.65188,angle,0
x101,learn,1106,L18,learn,-0.38636,0.10352,1,0,0,0.417615,angle,0
x101,learn,1107,L5,learn,1.07384,0.62,0,0,1,0.703255,angle,0
x101,learn,1108,L30,learn,0,-1.84,0,0,1,0.587155,angle,0
x101,learn,1109,L4,learn,-0.452544,0.452544,1,1,1,0.85298,angle,0
x101,learn,1110,L26,learn,-1.07384,0.62,0,0,1,1.0704,angle,0
x101,learn,1111,L25,learn,-1.07384,-0.62,0,0,1,0.351545,angle,0
x101,learn,1112,L31,learn,0.38636,-0.10352,1,1,1,0.837895,angle,0
x101,learn,1113,L13,learn,-0.62,-1.07384,0,1,0,1.403855,angle,0
x101,learn,1114,L10,learn,0,1.84,0,0,1,0.753625,angle,0
x101,learn,1115,L21,learn,-1.301064,-1.301064,0,1,0,1.536175,angle,0
x101,learn,1116,L20,learn,0.10352,0.38636,1,1,1,4.92762,angle,0
x101,learn,1117,L14,learn,0.38636,0.10352,1,1,1,6.57676,angle,0
x101,learn,1118,L23,learn,1.301064,1.301064,0,0,1,5.26363,angle,0
x101,learn,1119,L12,learn,0.452544,-0.452544,1,1,1,1.08625,angle,0
x101,learn,1120,L27,learn,1.301064,-1.301064,0,1,0,0.483385,angle,0
x101,learn,1121,L7,learn,-0.10352,0.38636,1,0,0,0.634945,angle,0
x101,learn,1122,L15,learn,-1.301064,1.301064,0,0,1,0.66748,angle,0
x101,learn,1123,L11,learn,0.64,0,1,1,1,0.74505,angle,0
x101,learn,1124,L19,learn,-0.10352,-0.38636,1,1,1,0.94096,angle,0
x101,learn,1125,L31,learn,0.38636,-0.10352,1,1,1,1.209155,angle,0
x101,learn,1126,L23,learn,1.301064,1.301064,0,0,1,0.614015,angle,0
x101,learn,1127,L3,learn,0.62,1.07384,0,0,1,1.221835,angle,0
x101,learn,1128,L28,learn,-0.64,0,1,1,1,1.37577,angle,0
x101,learn,1129,L17,learn,-0.452544,-0.452544,1,1,1,0.636445,angle,0
x101,learn,1130,L1,learn,-0.38636,-0.10352,1,1,1,0.932445,angle,0
x101,learn,1131,L32,learn,0.10352,-0.38636,1,1,1,0.62204,angle,0
x101,learn,1132,L29,learn,-1.84,0,0,0,1,0.98454,angle,0
x101,learn,1133,L13,learn,-0.62,-1.07384,0,1,0,1.95925,angle,0
x101,learn,1134,L18,learn,-0.38636,0.10352,1,0,0,1.02109,angle,0
x101,learn,1135,L9,learn,0,-0.64,1,1,1,2.863455,angle,0
x101,learn,1136,L14,learn,0.38636,0.10352,1,0,0,1.05395,angle,0
x101,learn,1137,L10,learn,0,1.84,0,0,1,1.02298,angle,0
x101,learn,1138,L20,learn,0.10352,0.38636,1,1,1,0.636375,angle,0
x101,learn,1139,L24,learn,-0.62,1.07384,0,0,1,1.657255,angle,0
x101,learn,1140,L12,learn,0.452544,-0.452544,1,1,1,0.60316,angle,0
x101,learn,1141,L21,learn,-1.301064,-1.301064,0,1,0,0.73923,angle,0
x101,learn,1142,L2,learn,0.452544,0.452544,1,1,1,1.065795,angle,0
x101,learn,1143,L16,learn,0,0.64,1,1,1,0.806195,angle,0
x101,learn,1144,L22,learn,1.07384,-0.62,0,1,0,0.852645,angle,0
x101,learn,1145,L4,learn,-0.452544,0.452544,1,1,1,1.75801,angle,0
x101,learn,1146,L6,learn,0.62,-1.07384,0,1,0,0.71125,angle,0
x101,learn,1147,L30,learn,0,-1.84,0,0,1,0.821755,angle,0
x101,learn,1148,L27,learn,1.301064,-1.301064,0,0,1,2.566285,angle,0
x101,learn,1149,L25,learn,-1.07384,-0.62,0,0,1,1.380585,angle,0
x101,learn,1150,L5,learn,1.07384,0.62,0,0,1,1.400485,angle,0
x101,learn,1151,L8,learn,1.84,0,0,0,1,1.03768,angle,0
x101,learn,1152,L26,learn,-1.07384,0.62,0,0,1,1.222845,angle,0
x101,learn,1153,L22,learn,1.07384,-0.62,0,1,0,0.5831,angle,0
x101,learn,1154,L8,learn,1.84,0,0,1,0,1.9286,angle,0
x101,learn,1155,L5,learn,1.07384,0.62,0,0,1,0.72026,angle,0
x101,learn,1156,L18,learn,-0.38636,0.10352,1,1,1,0.6555,angle,0
x101,learn,1157,L31,learn,0.38636,-0.10352,1,1,1,1.26429,angle,0
x101,learn,1158,L21,learn,-1.301064,-1.301064,0,0,1,0.854255,angle,0
x101,learn,1159,L1,learn,-0.38636,-0.10352,1,1,1,1.26485,angle,0
x101,learn,1160,L19,learn,-0.10352,-0.38636,1,1,1,3.37718,angle,0
x101,learn,1161,L13,learn,-0.62,-1.07384,0,0,1,0.85405,angle,0
x101,learn,1162,L26,learn,-1.07384,0.62,0,0,1,0.7033,angle,0
x101,learn,1163,L30,learn,0,-1.84,0,0,1,0.67985,angle,0
x101,learn,1164,L29,learn,-1.84,0,0,0,1,3.60029,angle,0
x101,learn,1165,L25,learn,-1.07384,-0.62,0,1,0,1.720935,angle,0
x101,learn,1166,L7,learn,-0.10352,0.38636,1,0,0,1.20945,angle,0
x101,learn,1167,L10,learn,0,1.84,0,0,1,0.51383,angle,0
x101,learn,1168,L15,learn,-1.301064,1.301064,0,0,1,0.78579,angle,0
x101,learn,1169,L24,learn,-0.62,1.07384,0,0,1,0.875385,angle,0
x101,learn,1170,L9,learn,0,-0.64,1,0,0,0.68775,angle,0
x101,learn,1171,L23,learn,1.301064,1.301064,0,0,1,0.632885,angle,0
x101,learn,1172,L4,learn,-0.452544,0.452544,1,1,1,0.973455,angle,0
x101,learn,1173,L11,learn,0.64,0,1,1,1,0.80398,angle,0
x101,learn,1174,L17,learn,-0.452544,-0.452544,1,1,1,0.881325,angle,0
x101,learn,1175,L14,learn,0.38636,0.10352,1,1,1,0.93268,angle,0
x101,learn,1176,L32,learn,0.10352,-0.38636,1,1,1,0.93441,angle,0
x101,learn,1177,L16,learn,0,0.64,1,1,1,1.28587,angle,0
x101,learn,1178,L2,learn,0.452544,0.452544,1,0,0,1.36396,angle,0
x101,learn,1179,L3,learn,0.62,1.07384,0,0,1,0.76853,angle,0
x101,learn,1180,L12,learn,0.452544,-0.452544,1,1,1,1.490535,angle,0
x101,learn,1181,L27,learn,1.301064,-1.301064,0,0,1,3.293975,angle,0
x101,learn,1182,L20,learn,0.10352,0.38636,1,1,1,1.62123,angle,0
x101,learn,1183,L28,learn,-0.64,0,1,1,1,1.05732,angle,0
x101,learn,1184,L6,learn,0.62,-1.07384,0,0,1,1.57205,angle,0
x101,learn,1185,L28,learn,-0.64,0,1,1,1,0.96982,angle,0
x101,learn,1186,L23,learn,1.301064,1.301064,0,0,1,0.688445,angle,0
x101,learn,1187,L30,learn,0,-1.84,0,0,1,0.57021,angle,0
x101,learn,1188,L5,learn,1.07384,0.62,0,1,0,1.67056,angle,0
x101,learn,1189,L19,learn,-0.10352,-0.38636,1,1,1,2.411785,angle,0
x101,learn,1190,L15,learn,-1.301064,1.301064,0,0,1,0.62048,angle,0
x101,learn,1191,L7,learn,-0.10352,0.38636,1,1,1,1.036325,angle,0
x101,learn,1192,L3,learn,0.62,1.07384,0,0,1,0.86427,angle,0
x101,learn,1193,L27,learn,1.301064,-1.301064,0,0,1,1.470325,angle,0
x101,learn,1194,L18,learn,-0.38636,0.10352,1,1,1,0.781835,angle,0
x101,learn,1195,L2,learn,0.452544,0.452544,1,1,1,0.76384,angle,0
x101,learn,1196,L8,learn,1.84,0,0,0,1,0.852285,angle,0
x101,learn,1197,L11,learn,0.64,0,1,1,1,1.439975,angle,0
x101,learn,1198,L9,learn,0,-0.64,1,1,1,0.69248,angle,0
x101,learn,1199,L26,learn,-1.07384,0.62,0,0,1,1.071675,angle,0
x101,learn,1200,L29,learn,-1.84,0,0,1,0,0.83295,angle,0
x101,learn,1201,L4,learn,-0.452544,0.452544,1,0,0,1.05304,angle,0
x101,learn,1202,L12,learn,0.452544,-0.452544,1,1,1,1.003645,angle,0
x101,learn,1203,L17,learn,-0.452544,-0.452544,1,1,1,0.572865,angle,0
x101,learn,1204,L14,learn,0.38636,0.10352,1,1,1,0.868975,angle,0
x101,learn,1205,L25,learn,-1.07384,-0.62,0,1,0,0.85656,angle,0
x101,learn,1206,L20,learn,0.10352,0.38636,1,1,1,0.786965,angle,0
x101,learn,1207,L13,learn,-0.62,-1.07384,0,0,1,0.581225,angle,0
x101,learn,1208,L31,learn,0.38636,-0.10352,1,1,1,0.70679,angle,0
x101,learn,1209,L1,learn,-0.38636,-0.10352,1,1,1,0.602725,angle,0
x101,learn,1210,L16,learn,0,0.64,1,0,0,1.099705,angle,0
x101,learn,1211,L32,learn,0.10352,-0.38636,1,1,1,0.65241,angle,0
x101,learn,1212,L22,learn,1.07384,-0.62,0,0,1,1.07378,angle,0
x101,learn,1213,L24,learn,-0.62,1.07384,0,0,1,0.80488,angle,0
x101,learn,1214,L10,learn,0,1.84,0,0,1,0.71982,angle,0
x101,learn,1215,L21,learn,-1.301064,-1.301064,0,0,1,0.80402,angle,0
x101,learn,1216,L6,learn,0.62,-1.07384,0,0,1,1.46681,angle,0
x101,learn,1217,L6,learn,0.62,-1.07384,0,0,1,0.736705,angle,0
x101,learn,1218,L20,learn,0.10352,0.38636,1,1,1,2.19488,angle,0
x101,learn,1219,L4,learn,-0.452544,0.452544,1,0,0,2.356505,angle,0
x101,learn,1220,L27,learn,1.301064,-1.301064,0,1,0,1.008275,angle,0
x101,learn,1221,L32,learn,0.10352,-0.38636,1,1,1,0.56902,angle,0
x101,learn,1222,L29,learn,-1.84,0,0,0,1,4.215025,angle,0
x101,learn,1223,L16,learn,0,0.64,1,1,1,0.88401,angle,0
x101,learn,1224,L31,learn,0.38636,-0.10352,1,1,1,1.558545,angle,0
x101,learn,1225,L14,learn,0.38636,0.10352,1,1,1,0.717655,angle,0
x101,learn,1226,L2,learn,0.452544,0.452544,1,1,1,0.764475,angle,0
x101,learn,1227,L17,learn,-0.452544,-0.452544,1,1,1,1.1565,angle,0
x101,learn,1228,L21,learn,-1.301064,-1.301064,0,0,1,0.753255,angle,0
x101,learn,1229,L8,learn,1.84,0,0,0,1,1.976535,angle,0
x101,learn,1230,L5,learn,1.07384,0.62,0,0,1,0.78517,angle,0
x101,learn,1231,L30,learn,0,-1.84,0,0,1,0.705325,angle,0
x101,learn,1232,L22,learn,1.07384,-0.62,0,0,1,1.03647,angle,0
x101,learn,1233,L1,learn,-0.38636,-0.10352,1,1,1,0.670365,angle,0
x101,learn,1234,L15,learn,-1.301064,1.301064,0,0,1,0.6517,angle,0
x101,learn,1235,L13,learn,-0.62,-1.07384,0,0,1,2.09312,angle,0
x101,learn,1236,L12,learn,0.452544,-0.452544,1,1,1,0.76828,angle,0
x101,learn,1237,L10,learn,0,1.84,0,0,1,0.61706,angle,0
x101,learn,1238,L3,learn,0.62,1.07384,0,0,1,0.800365,angle,0
x101,learn,1239,L28,learn,-0.64,0,1,1,1,0.942165,angle,0
x101,learn,1240,L11,learn,0.64,0,1,0,0,1.071585,angle,0
x101,learn,1241,L25,learn,-1.07384,-0.62,0,1,0,1.07253,angle,0
x101,learn,1242,L23,learn,1.301064,1.301064,0,0,1,2.43447,angle,0
x101,learn,1243,L7,learn,-0.10352,0.38636,1,1,1,6.47039,angle,0
x101,learn,1244,L24,learn,-0.62,1.07384,0,0,1,1.2043,angle,0
x101,learn,1245,L18,learn,-0.38636,0.10352,1,1,1,0.82004,angle,0
x101,learn,1246,L9,learn,0,-0.64,1,1,1,0.72022,angle,0
x101,learn,1247,L19,learn,-0.10352,-0.38636,1,1,1,0.63154,angle,0
x101,learn,1248,L26,learn,-1.07384,0.62,0,0,1,0.98807,angle,0
x101,learn,1249,L14,learn,0.38636,0.10352,1,1,1,1.105285,angle,0
x101,learn,1250,L27,learn,1.301064,-1.301064,0,0,1,1.43508,angle,0
x101,learn,1251,L23,learn,1.301064,1.301064,0,0,1,0.73673,angle,0
x101,learn,1252,L24,learn,-0.62,1.07384,0,0,1,0.732245,angle,0
x101,learn,1253,L4,learn,-0.452544,0.452544,1,1,1,1.35814,angle,0
x101,learn,1254,L13,learn,-0.62,-1.07384,0,0,1,0.806255,angle,0
x101,learn,1255,L19,learn,-0.10352,-0.38636,1,1,1,1.041305,angle,0
x101,learn,1256,L25,learn,-1.07384,-0.62,0,0,1,1.811015,angle,0
x101,learn,1257,L16,learn,0,0.64,1,0,0,3.015025,angle,0
x101,learn,1258,L6,learn,0.62,-1.07384,0,0,1,0.884255,angle,0
x101,learn,1259,L21,learn,-1.301064,-1.301064,0,0,1,0.7201,angle,0
x101,learn,1260,L8,learn,1.84,0,0,0,1,1.11405,angle,0
x101,learn,1261,L11,learn,0.64,0,1,0,0,1.34185,angle,0
x101,learn,1262,L12,learn,0.452544,-0.452544,1,1,1,1.02586,angle,0
x101,learn,1263,L5,learn,1.07384,0.62,0,0,1,0.90329,angle,0
x101,learn,1264,L30,learn,0,-1.84,0,0,1,0.58407,angle,0
x101,learn,1265,L22,learn,1.07384,-0.62,0,1,0,0.71955,angle,0
x101,learn,1266,L29,learn,-1.84,0,0,0,1,1.004135,angle,0
x101,learn,1267,L9,learn,0,-0.64,1,1,1,0.84127,angle,0
x101,learn,1268,L17,learn,-0.452544,-0.452544,1,1,1,0.77059,angle,0
x101,learn,1269,L10,learn,0,1.84,0,0,1,0.61265,angle,0
x101,learn,1270,L18,learn,-0.38636,0.10352,1,1,1,0.904225,angle,0
x101,learn,1271,L31,learn,0.38636,-0.10352,1,1,1,0.61994,angle,0
x101,learn,1272,L3,learn,0.62,1.07384,0,0,1,0.623325,angle,0
x101,learn,1273,L20,learn,0.10352,0.38636,1,1,1,0.94212,angle,0
x101,learn,1274,L2,learn,0.452544,0.452544,1,1,1,0.653565,angle,0
x101,learn,1275,L1,learn,-0.38636,-0.10352,1,1,1,0.68194,angle,0
x101,learn,1276,L26,learn,-1.07384,0.62,0,0,1,0.85357,angle,0
x101,learn,1277,L7,learn,-0.10352,0.38636,1,1,1,3.615465,angle,0
x101,learn,1278,L28,learn,-0.64,0,1,1,1,1.40508,angle,0
x101,learn,1279,L32,learn,0.10352,-0.38636,1,1,1,1.10714,angle,0
x101,learn,1280,L15,learn,-1.301064,1.301064,0,0,1,0.683525,angle,0
x101,transfer,1281,L8,learn,1.84,0,0,0,1,1.356195,angle,0
x101,transfer,1282,L3,learn,0.62,1.07384,0,0,1,0.99817,angle,0
x101,transfer,1283,L11,learn,0.64,0,1,1,1,2.241575,angle,0
x101,transfer,1284,L10,learn,0,1.84,0,0,1,0.91938,angle,0
x101,transfer,1285,L18,learn,-0.38636,0.10352,1,1,1,0.69002,angle,0
x101,transfer,1286,L7,learn,-0.10352,0.38636,1,1,1,0.582965,angle,0
x101,transfer,1287,L25,learn,-1.07384,-0.62,0,1,0,3.196635,angle,0
x101,transfer,1288,L20,learn,0.10352,0.38636,1,1,1,0.737055,angle,0
x101,transfer,1289,T5,transfer,-0.7667,0.3067,,1,,1.47596,angle,0
x101,transfer,1290,T4,transfer,0.7667,-0.3067,,1,,0.67035,angle,0
x101,transfer,1291,T2,transfer,0.3067,-0.7667,,1,,0.757655,angle,0
x101,transfer,1292,L15,learn,-1.301064,1.301064,0,0,1,0.718785,angle,0
x101,transfer,1293,L22,learn,1.07384,-0.62,0,1,0,0.92347,angle,0
x101,transfer,1294,L19,learn,-0.10352,-0.38636,1,1,1,0.68079,angle,0
x101,transfer,1295,L30,learn,0,-1.84,0,0,1,0.68657,angle,0
x101,transfer,1296,T2,transfer,0.3067,-0.7667,,1,,1.303285,angle,0
x101,transfer,1297,L2,learn,0.452544,0.452544,1,1,1,1.290245,angle,0
x101,transfer,1298,L13,learn,-0.62,-1.07384,0,1,0,1.22112,angle,0
x101,transfer,1299,L15,learn,-1.301064,1.301064,0,0,1,0.702995,angle,0
x101,transfer,1300,L26,learn,-1.07384,0.62,0,1,0,1.56956,angle,0
x101,transfer,1301,L21,learn,-1.301064,-1.301064,0,0,1,2.00409,angle,0
x101,transfer,1302,L21,learn,-1.301064,-1.301064,0,0,1,1.72493,angle,0
x101,transfer,1303,L28,learn,-0.64,0,1,1,1,1.022195,angle,0
x101,transfer,1304,L14,learn,0.38636,0.10352,1,1,1,0.48036,angle,0
x101,transfer,1305,L29,learn,-1.84,0,0,0,1,1.072,angle,0
x101,transfer,1306,L16,learn,0,0.64,1,1,1,0.939215,angle,0
x101,transfer,1307,T2,transfer,0.3067,-0.7667,,1,,2.09837,angle,0
x101,transfer,1308,L10,learn,0,1.84,0,0,1,0.620155,angle,0
x101,transfer,1309,T8,transfer,0.3067,0.7667,,1,,1.0386,angle,0
x101,transfer,1310,L31,learn,0.38636,-0.10352,1,1,1,0.621555,angle,0
x101,transfer,1311,L13,learn,-0.62,-1.07384,0,1,0,0.887765,angle,0
x101,transfer,1312,L23,learn,1.301064,1.301064,0,0,1,0.59583,angle,0
x101,transfer,1313,T7,transfer,-0.3067,0.7667,,1,,1.06806,angle,0
x101,transfer,1314,L6,learn,0.62,-1.07384,0,0,1,0.552615,angle,0
x101,transfer,1315,L30,learn,0,-1.84,0,0,1,0.60253,angle,0
x101,transfer,1316,L28,learn,-0.64,0,1,1,1,0.653195,angle,0
x101,transfer,1317,T4,transfer,0.7667,-0.3067,,1,,0.936955,angle,0
x101,transfer,1318,L22,learn,1.07384,-0.62,0,0,1,1.35644,angle,0
x101,transfer,1319,T7,transfer,-0.3067,0.7667,,0,,2.05987,angle,0
x101,transfer,1320,L1,learn,-0.38636,-0.10352,1,1,1,0.80544,angle,0
x101,transfer,1321,L32,learn,0.10352,-0.38636,1,1,1,0.53735,angle,0
x101,transfer,1322,T1,transfer,-0.3067,-0.7667,,1,,1.32164,angle,0
x101,transfer,1323,L17,learn,-0.452544,-0.452544,1,1,1,0.53726,angle,0
x101,transfer,1324,T3,transfer,-0.7667,-0.3067,,1,,0.847055,angle,0
x101,transfer,1325,L17,learn,-0.452544,-0.452544,1,1,1,0.45185,angle,0
x101,transfer,1326,T4,transfer,0.7667,-0.3067,,0,,1.00056,angle,0
x101,transfer,1327,L27,learn,1.301064,-1.301064,0,0,1,1.52614,angle,0
x101,transfer,1328,L20,learn,0.10352,0.38636,1,1,1,0.87216,angle,0
x101,transfer,1329,T6,transfer,0.7667,0.3067,,1,,0.969925,angle,0
x101,transfer,1330,L16,learn,0,0.64,1,1,1,0.686135,angle,0
x101,transfer,1331,L14,learn,0.38636,0.10352,1,1,1,0.569695,angle,0
x101,transfer,1332,L4,learn,-0.452544,0.452544,1,1,1,0.534535,angle,0
x101,transfer,1333,L7,learn,-0.10352,0.38636,1,1,1,0.579305,angle,0
x101,transfer,1334,T3,transfer,-0.7667,-0.3067,,1,,0.46141,angle,0
x101,transfer,1335,L29,learn,-1.84,0,0,0,1,0.68215,angle,0
x101,transfer,1336,L8,learn,1.84,0,0,1,0,1.961075,angle,0
x101,transfer,1337,L23,learn,1.301064,1.301064,0,0,1,0.672665,angle,0
x101,transfer,1338,L9,learn,0,-0.64,1,1,1,0.787645,angle,0
x101,transfer,1339,L27,learn,1.301064,-1.301064,0,0,1,0.85175,angle,0
x101,transfer,1340,T5,transfer,-0.7667,0.3067,,1,,0.528025,angle,0
x101,transfer,1341,T8,transfer,0.3067,0.7667,,1,,0.838035,angle,0
x101,transfer,1342,L25,learn,-1.07384,-0.62,0,1,0,0.8005,angle,0
x101,transfer,1343,L6,learn,0.62,-1.07384,0,1,0,0.888495,angle,0
x101,transfer,1344,T8,transfer,0.3067,0.7667,,1,,0.803345,angle,0
x101,transfer,1345,T7,transfer,-0.3067,0.7667,,1,,0.56942,angle,0
x101,transfer,1346,L1,learn,-0.38636,-0.10352,1,1,1,0.48591,angle,0
x101,transfer,1347,L2,learn,0.452544,0.452544,1,1,1,0.51921,angle,0
x101,transfer,1348,L31,learn,0.38636,-0.10352,1,1,1,0.480195,angle,0
x101,transfer,1349,L24,learn,-0.62,1.07384,0,1,0,1.152425,angle,0
x101,transfer,1350,L24,learn,-0.62,1.07384,0,1,0,0.52856,angle,0
x101,transfer,1351,L5,learn,1.07384,0.62,0,1,0,1.11299,angle,0
x101,transfer,1352,T6,transfer,0.7667,0.3067,,1,,0.720435,angle,0
x101,transfer,1353,L19,learn,-0.10352,-0.38636,1,1,1,0.469355,angle,0
x101,transfer,1354,T1,transfer,-0.3067,-0.7667,,1,,0.68539,angle,0
x101,transfer,1355,T6,transfer,0.7667,0.3067,,1,,0.541125,angle,0
x101,transfer,1356,T5,transfer,-0.7667,0.3067,,1,,0.63658,angle,0
x101,transfer,1357,L12,learn,0.452544,-0.452544,1,1,1,0.674485,angle,0
x101,transfer,1358,L32,learn,0.10352,-0.38636,1,1,1,0.602345,angle,0
x101,transfer,1359,L9,learn,0,-0.64,1,1,1,0.626295,angle,0
x101,transfer,1360,L3,learn,0.62,1.07384,0,1,0,0.892545,angle,0
x101,transfer,1361,L12,learn,0.452544,-0.452544,1,1,1,1.237335,angle,0
x101,transfer,1362,L11,learn,0.64,0,1,1,1,0.572605,angle,0
x101,transfer,1363,L18,learn,-0.38636,0.10352,1,1,1,0.568575,angle,0
x101,transfer,1364,T3,transfer,-0.7667,-0.3067,,1,,1.486485,angle,0
x101,transfer,1365,L4,learn,-0.452544,0.452544,1,1,1,0.77339,angle,0
x101,transfer,1366,L26,learn,-1.07384,0.62,0,1,0,0.615235,angle,0
x101,transfer,1367,L5,learn,1.07384,0.62,0,0,1,0.88578,angle,0
x101,transfer,1368,T1,transfer,-0.3067,-0.7667,,1,,0.786355,angle,0
x101,filler,1369,F4,corner,0.7667,-0.7667,,1,,0.586695,angle,0
x101,filler,1370,F3,corner,-0.7667,-0.7667,,1,,1.022765,angle,0
x101,filler,1371,F7,close,1.0733,0,,1,,0.83646,angle,0
x101,filler,1372,F9,corner,-0.7667,0.7667,,1,,0.749525,angle,0
x101,filler,1373,F8,far,1.5333,0,,1,,0.550695,angle,0
x101,filler,1374,F6,close,-1.0733,0,,1,,0.427975,angle,0
x101,filler,1375,F11,close,0,1.0733,,0,,1.13535,angle,0
x101,filler,1376,F2,close,0,-1.0733,,1,,0.56129,angle,0
x101,filler,1377,F1,far,0,-1.5333,,1,,0.379565,angle,0
x101,filler,1378,F10,corner,0.7667,0.7667,,1,,0.71752,angle,0
x101,filler,1379,F5,far,-1.5333,0,,1,,0.888635,angle,0
x101,filler,1380,F12,far,0,1.5333,,0,,0.781505,angle,0
x102,learn,1,L26,learn,-1.07384,0.62,0,1,0,1.019315,size,1
x102,learn,2,L30,learn,0,-1.84,0,0,1,1.88406,size,1
x102,learn,3,L12,learn,0.452544,-0.452544,1,0,0,1.816615,size,1
x102,learn,4,L4,learn,-0.452544,0.452544,1,1,1,1.74563,size,1
x102,learn,5,L10,learn,0,1.84,0,0,1,1.01683,size,1
x102,learn,6,L31,learn,0.38636,-0.10352,1,0,0,1.01084,size,1
x102,learn,7,L21,learn,-1.301064,-1.301064,0,1,0,2.667165,size,1
x102,learn,8,L23,learn,1.301064,1.301064,0,0,1,2.300635,size,1
x102,learn,9,L19,learn,-0.10352,-0.38636,1,0,0,4.278925,size,1
x102,learn,10,L28,learn,-0.64,0,1,1,1,2.072285,size,1
x102,learn,11,L7,learn,-0.10352,0.38636,1,0,0,0.997215,size,1
x102,learn,12,L15,learn,-1.301064,1.301064,0,0,1,7.354125,size,1
x102,learn,13,L25,learn,-1.07384,-0.62,0,0,1,2.52381,size,1
x102,learn,14,L22,learn,1.07384,-0.62,0,1,0,1.124125,size,1
x102,learn,15,L27,learn,1.301064,-1.301064,0,1,0,2.36324,size,1
x102,learn,16,L8,learn,1.84,0,0,0,1,0.83507,size,1
x102,learn,17,L5,learn,1.07384,0.62,0,0,1,1.08424,size,1
x102,learn,18,L24,learn,-0.62,1.07384,0,1,0,2.812535,size,1
x102,learn,19,L6,learn,0.62,-1.07384,0,0,1,1.428435,size,1
x102,learn,20,L14,learn,0.38636,0.10352,1,0,0,1.24372,size,1
x102,learn,21,L11,learn,0.64,0,1,1,1,5.871195,size,1
x102,learn,22,L2,learn,0.452544,0.452544,1,0,0,1.463735,size,1
x102,learn,23,L16,learn,0,0.64,1,1,1,0.9088,size,1
x102,learn,24,L13,learn,-0.62,-1.07384,0,0,1,1.1504,size,1
x102,learn,25,L1,learn,-0.38636,-0.10352,1,1,1,2.778325,size,1
x102,learn,26,L17,learn,-0.452544,-0.452544,1,0,0,2.98765,size,1
x102,learn,27,L32,learn,0.10352,-0.38636,1,0,0,1.91767,size,1
x102,learn,28,L20,learn,0.10352,0.38636,1,1,1,0.70004,size,1
x102,learn,29,L3,learn,0.62,1.07384,0,1,0,2.30677,size,1
x102,learn,30,L29,learn,-1.84,0,0,0,1,1.50958,size,1
x102,learn,31,L9,learn,0,-0.64,1,1,1,1.170475,size,1
x102,learn,32,L18,learn,-0.38636,0.10352,1,1,1,2.297525,size,1
x102,learn,33,L8,learn,1.84,0,0,0,1,1.075335,size,1
x102,learn,34,L10,learn,0,1.84,0,1,0,2.32678,size,1
x102,learn,35,L5,learn,1.07384,0.62,0,0,1,0.626905,size,1
x102,learn,36,L3,learn,0.62,1.07384,0,1,0,0.67266,size,1
x102,learn,37,L19,learn,-0.10352,-0.38636,1,0,0,0.65084,size,1
x102,learn,38,L9,learn,0,-0.64,1,0,0,0.670285,size,1
x102,learn,39,L16,learn,0,0.64,1,1,1,0.611545,size,1
x102,learn,40,L25,learn,-1.07384,-0.62,0,0,1,0.71389,size,1
x102,learn,41,L14,learn,0.38636,0.10352,1,0,0,0.706535,size,1
x102,learn,42,L2,learn,0.452544,0.452544,1,1,1,0.36949,size,1
x102,learn,43,L7,learn,-0.10352,0.38636,1,1,1,0.57222,size,1
x102,learn,44,L1,learn,-0.38636,-0.10352,1,0,0,1.129645,size,1
x102,learn,45,L20,learn,0.10352,0.38636,1,1,1,0.460425,size,1
x102,learn,46,L11,learn,0.64,0,1,1,1,0.876625,size,1
x102,learn,47,L29,learn,-1.84,0,0,0,1,1.04548,size,1
x102,learn,48,L13,learn,-0.62,-1.07384,0,0,1,2.234185,size,1
x102,learn,49,L4,learn,-0.452544,0.452544,1,1,1,0.5036,size,1
x102,learn,50,L18,learn,-0.38636,0.10352,1,1,1,0.81927,size,1
x102,learn,51,L26,learn,-1.07384,0.62,0,1,0,0.75021,size,1
x102,learn,52,L17,learn,-0.452544,-0.452544,1,0,0,0.78334,size,1
x102,learn,53,L6,learn,0.62,-1.07384,0,0,1,2.59943,size,1
x102,learn,54,L31,learn,0.38636,-0.10352,1,1,1,1.401415,size,1
x102,learn,55,L24,learn,-0.62,1.07384,0,0,1,0.692055,size,1
x102,learn,56,L22,learn,1.07384,-0.62,0,0,1,0.718585,size,1
x102,learn,57,L21,learn,-1.301064,-1.301064,0,0,1,1.63455,size,1
x102,learn,58,L12,learn,0.452544,-0.452544,1,0,0,4.05213,size,1
x102,learn,59,L28,learn,-0.64,0,1,0,0,1.16072,size,1
x102,learn,60,L27,learn,1.301064,-1.301064,0,0,1,0.697205,size,1
x102,learn,61,L32,learn,0.10352,-0.38636,1,1,1,1.617475,size,1
x102,learn,62,L23,learn,1.301064,1.301064,0,0,1,2.28537,size,1
x102,learn,63,L15,learn,-1.301064,1.301064,0,0,1,1.63357,size,1
x102,learn,64,L30,learn,0,-1.84,0,1,0,2.621745,size,1
x102,learn,65,L10,learn,0,1.84,0,0,1,0.834135,size,1
x102,learn,66,L16,learn,0,0.64,1,0,0,0.700855,size,1
x102,learn,67,L8,learn,1.84,0,0,0,1,1.25402,size,1
x102,learn,68,L4,learn,-0.452544,0.452544,1,0,0,2.17653,size,1
x102,learn,69,L12,learn,0.452544,-0.452544,1,0,0,3.317105,size,1
x102,learn,70,L30,learn,0,-1.84,0,1,0,0.59067,size,1
x102,learn,71,L13,learn,-0.62,-1.07384,0,0,1,1.82308,size,1
x102,learn,72,L22,learn,1.07384,-0.62,0,1,0,2.500865,size,1
x102,learn,73,L14,learn,0.38636,0.10352,1,0,0,3.1719,size,1
x102,learn,74,L28,learn,-0.64,0,1,0,0,0.668355,size,1
x102,learn,75,L31,learn,0.38636,-0.10352,1,0,0,0.984375,size,1
x102,learn,76,L2,learn,0.452544,0.452544,1,1,1,0.29488,size,1
x102,learn,77,L3,learn,0.62,1.07384,0,1,0,0.721715,size,1
x102,learn,78,L6,learn,0.62,-1.07384,0,0,1,0.656625,size,1
x102,learn,79,L7,learn,-0.10352,0.38636,1,0,0,0.930415,size,1
x102,learn,80,L27,learn,1.301064,-1.301064,0,0,1,1.18748,size,1
x102,learn,81,L25,learn,-1.07384,-0.62,0,0,1,0.652685,size,1
x102,learn,82,L20,learn,0.10352,0.38636,1,1,1,0.416935,size,1
x102,learn,83,L21,learn,-1.301064,-1.301064,0,0,1,0.72354,size,1
x102,learn,84,L24,learn,-0.62,1.07384,0,1,0,0.353695,size,1
x102,learn,85,L17,learn,-0.452544,-0.452544,1,0,0,0.31102,size,1
x102,learn,86,L18,learn,-0.38636,0.10352,1,1,1,0.61926,size,1
x102,learn,87,L29,learn,-1.84,0,0,0,1,1.316925,size,1
x102,learn,88,L23,learn,1.301064,1.301064,0,1,0,0.717965,size,1
x102,learn,89,L32,learn,0.10352,-0.38636,1,0,0,0.73729,size,1
x102,learn,90,L19,learn,-0.10352,-0.38636,1,1,1,0.352885,size,1
x102,learn,91,L5,learn,1.07384,0.62,0,1,0,0.603825,size,1
x102,learn,92,L15,learn,-1.301064,1.301064,0,0,1,0.5499,size,1
x102,learn,93,L9,learn,0,-0.64,1,0,0,0.50029,size,1
x102,learn,94,L26,learn,-1.07384,0.62,0,1,0,0.34346,size,1
x102,learn,95,L11,learn,0.64,0,1,0,0,0.30574,size,1
x102,learn,96,L1,learn,-0.38636,-0.10352,1,1,1,0.41695,size,1
x102,learn,97,L29,learn,-1.84,0,0,0,1,1.255705,size,1
x102,learn,98,L20,learn,0.10352,0.38636,1,1,1,0.74599,size,1
x102,learn,99,L10,learn,0,1.84,0,1,0,0.7675,size,1
x102,learn,100,L16,learn,0,0.64,1,1,1,1.70057,size,1
x102,learn,101,L15,learn,-1.301064,1.301064,0,0,1,1.524215,size,1
x102,learn,102,L18,learn,-0.38636,0.10352,1,1,1,0.50058,size,1
x102,learn,103,L7,learn,-0.10352,0.38636,1,1,1,0.452435,size,1
x102,learn,104,L1,learn,-0.38636,-0.10352,1,0,0,1.58374,size,1
x102,learn,105,L2,learn,0.452544,0.452544,1,1,1,0.43666,size,1
x102,learn,106,L26,learn,-1.07384,0.62,0,1,0,0.552265,size,1
x102,learn,107,L28,learn,-0.64,0,1,0,0,0.33945,size,1
x102,learn,108,L27,learn,1.301064,-1.301064,0,0,1,0.65652,size,1
x102,learn,109,L11,learn,0.64,0,1,0,0,0.65205,size,1
x102,learn,110,L24,learn,-0.62,1.07384,0,1,0,0.32723,size,1
x102,learn,111,L5,learn,1.07384,0.62,0,0,1,0.57183,size,1
x102,learn,112,L25,learn,-1.07384,-0.62,0,0,1,0.568625,size,1
x102,learn,113,L30,learn,0,-1.84,0,0,1,0.467665,size,1
x102,learn,114,L32,learn,0.10352,-0.38636,1,0,0,1.941695,size,1
x102,learn,115,L6,learn,0.62,-1.07384,0,1,0,0.6337,size,1
x102,learn,116,L17,learn,-0.452544,-0.452544,1,0,0,0.45026,size,1
x102,learn,117,L14,learn,0.38636,0.10352,1,1,1,0.39458,size,1
x102,learn,118,L23,learn,1.301064,1.301064,0,1,0,0.55078,size,1
x102,learn,119,L13,learn,-0.62,-1.07384,0,0,1,0.567395,size,1
x102,learn,120,L21,learn,-1.301064,-1.301064,0,0,1,0.636235,size,1
x102,learn,121,L22,learn,1.07384,-0.62,0,0,1,0.747475,size,1
x102,learn,122,L3,learn,0.62,1.07384,0,1,0,0.708265,size,1
x102,learn,123,L19,learn,-0.10352,-0.38636,1,0,0,0.6509,size,1
x102,learn,124,L12,learn,0.452544,-0.452544,1,0,0,1.08784,size,1
x102,learn,125,L8,learn,1.84,0,0,1,0,0.00043,size,1
x102,learn,126,L4,learn,-0.452544,0.452544,1,0,0,0.316955,size,1
x102,learn,127,L31,learn,0.38636,-0.10352,1,1,1,0.63662,size,1
x102,learn,128,L9,learn,0,-0.64,1,1,1,0.32704,size,1
x102,learn,129,L32,learn,0.10352,-0.38636,1,1,1,0.469905,size,1
x102,learn,130,L21,learn,-1.301064,-1.301064,0,0,1,0.89343,size,1
x102,learn,131,L23,learn,1.301064,1.301064,0,1,0,0.343865,size,1
x102,learn,132,L9,learn,0,-0.64,1,0,0,0.42104,size,1
x102,learn,133,L14,learn,0.38636,0.10352,1,0,0,0.56057,size,1
x102,learn,134,L22,learn,1.07384,-0.62,0,1,0,0.35432,size,1
x102,learn,135,L7,learn,-0.10352,0.38636,1,0,0,0.76216,size,1
x102,learn,136,L20,learn,0.10352,0.38636,1,1,1,0.47568,size,1
x102,learn,137,L29,learn,-1.84,0,0,0,1,0.897085,size,1
x102,learn,138,L26,learn,-1.07384,0.62,0,0,1,1.425725,size,1
x102,learn,139,L4,learn,-0.452544,0.452544,1,1,1,1.5565,size,1
x102,learn,140,L28,learn,-0.64,0,1,0,0,0.933115,size,1
x102,learn,141,L6,learn,0.62,-1.07384,0,0,1,0.444615,size,1
x102,learn,142,L11,learn,0.64,0,1,0,0,0.62519,size,1
x102,learn,143,L16,learn,0,0.64,1,1,1,0.95321,size,1
x102,learn,144,L19,learn,-0.10352,-0.38636,1,0,0,0.67673,size,1
x102,learn,145,L31,learn,0.38636,-0.10352,1,1,1,0.48369,size,1
x102,learn,146,L3,learn,0.62,1.07384,0,1,0,0.681095,size,1
x102,learn,147,L24,learn,-0.62,1.07384,0,0,1,0.58368,size,1
x102,learn,148,L18,learn,-0.38636,0.10352,1,1,1,3.056425,size,1
x102,learn,149,L13,learn,-0.62,-1.07384,0,0,1,1.523025,size,1
x102,learn,150,L15,learn,-1.301064,1.301064,0,1,0,1.13699,size,1
x102,learn,151,L2,learn,0.452544,0.452544,1,0,0,1.89968,size,1
x102,learn,152,L8,learn,1.84,0,0,0,1,1.074265,size,1
x102,learn,153,L12,learn,0.452544,-0.452544,1,1,1,0.454165,size,1
x102,learn,154,L25,learn,-1.07384,-0.62,0,0,1,0.4503,size,1
x102,learn,155,L1,learn,-0.38636,-0.10352,1,1,1,0.125005,size,1
x102,learn,156,L17,learn,-0.452544,-0.452544,1,0,0,0.70247,size,1
x102,learn,157,L10,learn,0,1.84,0,0,1,1.202775,size,1
x102,learn,158,L30,learn,0,-1.84,0,0,1,0.84752,size,1
x102,learn,159,L27,learn,1.301064,-1.301064,0,1,0,2.817365,size,1
x102,learn,160,L5,learn,1.07384,0.62,0,0,1,0.48009,size,1
x102,learn,161,L4,learn,-0.452544,0.452544,1,0,0,2.968685,size,1
x102,learn,162,L1,learn,-0.38636,-0.10352,1,1,1,0.32303,size,1
x102,learn,163,L5,learn,1.07384,0.62,0,0,1,0.34593,size,1
x102,learn,164,L27,learn,1.301064,-1.301064,0,1,0,0.68437,size,1
x102,learn,165,L10,learn,0,1.84,0,0,1,0.2285,size,1
x102,learn,166,L18,learn,-0.38636,0.10352,1,0,0,0.6566,size,1
x102,learn,167,L32,learn,0.10352,-0.38636,1,1,1,0.429955,size,1
x102,learn,168,L13,learn,-0.62,-1.07384,0,1,0,0.95146,size,1
x102,learn,169,L11,learn,0.64,0,1,0,0,0.90026,size,1
x102,learn,170,L15,learn,-1.301064,1.301064,0,1,0,2.04467,size,1
x102,learn,171,L23,learn,1.301064,1.301064,0,0,1,2.49747,size,1
x102,learn,172,L29,learn,-1.84,0,0,0,1,0.55305,size,1
x102,learn,173,L19,learn,-0.10352,-0.38636,1,0,0,1.932865,size,1
x102,learn,174,L9,learn,0,-0.64,1,1,1,2.18532,size,1
x102,learn,175,L2,learn,0.452544,0.452544,1,0,0,0.00041,size,1
x102,learn,176,L7,learn,-0.10352,0.38636,1,0,0,0.22056,size,1
x102,learn,177,L28,learn,-0.64,0,1,1,1,0.185805,size,1
x102,learn,178,L31,learn,0.38636,-0.10352,1,1,1,0.535095,size,1
x102,learn,179,L16,learn,0,0.64,1,1,1,2.03398,size,1
x102,learn,180,L25,learn,-1.07384,-0.62,0,1,0,0.44087,size,1
x102,learn,181,L14,learn,0.38636,0.10352,1,0,0,0.439445,size,1
x102,learn,182,L21,learn,-1.301064,-1.301064,0,1,0,0.07898,size,1
x102,learn,183,L8,learn,1.84,0,0,0,1,0.550615,size,1
x102,learn,184,L22,learn,1.07384,-0.62,0,0,1,2.701085,size,1
x102,learn,185,L20,learn,0.10352,0.38636,1,1,1,3.65045,size,1
x102,learn,186,L30,learn,0,-1.84,0,0,1,0.634235,size,1
x102,learn,187,L17,learn,-0.452544,-0.452544,1,1,1,1.32684,size,1
x102,learn,188,L6,learn,0.62,-1.07384,0,0,1,0.617125,size,1
x102,learn,189,L24,learn,-0.62,1.07384,0,0,1,0.84528,size,1
x102,learn,190,L12,learn,0.452544,-0.452544,1,0,0,0.527975,size,1
x102,learn,191,L26,learn,-1.07384,0.62,0,1,0,0.377235,size,1
x102,learn,192,L3,learn,0.62,1.07384,0,0,1,7.57094,size,1
x102,learn,193,L20,learn,0.10352,0.38636,1,1,1,1.2347,size,1
x102,learn,194,L1,learn,-0.38636,-0.10352,1,0,0,1.166785,size,1
x102,learn,195,L13,learn,-0.62,-1.07384,0,1,0,4.124905,size,1
x102,learn,196,L19,learn,-0.10352,-0.38636,1,0,0,1.734785,size,1
x102,learn,197,L28,learn,-0.64,0,1,1,1,0.550185,size,1
x102,learn,198,L12,learn,0.452544,-0.452544,1,1,1,0.667275,size,1
x102,learn,199,L9,learn,0,-0.64,1,0,0,0.900325,size,1
x102,learn,200,L11,learn,0.64,0,1,1,1,0.05506,size,1
x102,learn,201,L23,learn,1.301064,1.301064,0,1,0,1.08402,size,1
x102,learn,202,L25,learn,-1.07384,-0.62,0,0,1,0.8201,size,1
x102,learn,203,L32,learn,0.10352,-0.38636,1,0,0,0.55745,size,1
x102,learn,204,L16,learn,0,0.64,1,0,0,2.96822,size,1
x102,learn,205,L10,learn,0,1.84,0,0,1,0.82794,size,1
x102,learn,206,L29,learn,-1.84,0,0,1,0,1.486165,size,1
x102,learn,207,L17,learn,-0.452544,-0.452544,1,0,0,0.967345,size,1
x102,learn,208,L6,learn,0.62,-1.07384,0,0,1,27.977635,size,1
x102,learn,209,L7,learn,-0.10352,0.38636,1,0,0,4.18095,size,1
x102,learn,210,L18,learn,-0.38636,0.10352,1,0,0,4.537055,size,1
x102,learn,211,L14,learn,0.38636,0.10352,1,1,1,2.151315,size,1
x102,learn,212,L8,learn,1.84,0,0,1,0,1.376275,size,1
x102,learn,213,L4,learn,-0.452544,0.452544,1,0,0,0.54542,size,1
x102,learn,214,L24,learn,-0.62,1.07384,0,0,1,0.68196,size,1
x102,learn,215,L27,learn,1.301064,-1.301064,0,0,1,0.494385,size,1
x102,learn,216,L2,learn,0.452544,0.452544,1,1,1,1.36526,size,1
x102,learn,217,L21,learn,-1.301064,-1.301064,0,0,1,6.485145,size,1
x102,learn,218,L22,learn,1.07384,-0.62,0,0,1,1.528605,size,1
x102,learn,219,L5,learn,1.07384,0.62,0,0,1,1.62061,size,1
x102,learn,220,L3,learn,0.62,1.07384,0,0,1,0.707355,size,1
x102,learn,221,L31,learn,0.38636,-0.10352,1,0,0,0.82886,size,1
x102,learn,222,L30,learn,0,-1.84,0,1,0,0.682415,size,1
x102,learn,223,L26,learn,-1.07384,0.62,0,1,0,2.776225,size,1
x102,learn,224,L15,learn,-1.301064,1.301064,0,0,1,0.81495,size,1
x102,learn,225,L23,learn,1.301064,1.301064,0,1,0,5.153085,size,1
x102,learn,226,L25,learn,-1.07384,-0.62,0,0,1,0.60675,size,1
x102,learn,227,L26,learn,-1.07384,0.62,0,1,0,2.38999,size,1
x102,learn,228,L19,learn,-0.10352,-0.38636,1,0,0,0.808865,size,1
x102,learn,229,L1,learn,-0.38636,-0.10352,1,1,1,0.366375,size,1
x102,learn,230,L22,learn,1.07384,-0.62,0,0,1,0.5295,size,1
x102,learn,231,L6,learn,0.62,-1.07384,0,0,1,1.572915,size,1
x102,learn,232,L20,learn,0.10352,0.38636,1,1,1,1.97898,size,1
x102,learn,233,L31,learn,0.38636,-0.10352,1,0,0,0.799075,size,1
x102,learn,234,L10,learn,0,1.84,0,1,0,0.066995,size,1
x102,learn,235,L18,learn,-0.38636,0.10352,1,0,0,0.34083,size,1
x102,learn,236,L17,learn,-0.452544,-0.452544,1,1,1,0.93959,size,1
x102,learn,237,L24,learn,-0.62,1.07384,0,0,1,1.770545,size,1
x102,learn,238,L13,learn,-0.62,-1.07384,0,1,0,0.3285,size,1
x102,learn,239,L15,learn,-1.301064,1.301064,0,0,1,0.620845,size,1
x102,learn,240,L32,learn,0.10352,-0.38636,1,1,1,0.582685,size,1
