subj,phase,trial,stim,stim_type,f1,f2,c,resp,corr,rt,f1_is,e_is
s101,learn,1,L12,learn,0.452544,-0.452544,1,0,0,1.389,size,1
s101,learn,2,L22,learn,1.07384,-0.62,0,1,0,1.05,size,1
s101,learn,3,L26,learn,-1.07384,0.62,0,1,0,0.716,size,1
s101,learn,4,L25,learn,-1.07384,-0.62,0,1,0,0.981,size,1
s101,learn,5,L1,learn,-0.38636,-0.10352,1,1,1,0.748,size,1
s101,learn,6,L3,learn,0.62,1.07384,0,0,1,0.846,size,1
s101,learn,7,L19,learn,-0.10352,-0.38636,1,0,0,0.848,size,1
s101,learn,8,L23,learn,1.301064,1.301064,0,0,1,0.684,size,1
s101,learn,9,L31,learn,0.38636,-0.10352,1,1,1,0.847,size,1
s101,learn,10,L20,learn,0.10352,0.38636,1,0,0,1.031,size,1
s101,learn,11,L5,learn,1.07384,0.62,0,1,0,0.404,size,1
s101,learn,12,L13,learn,-0.62,-1.07384,0,1,0,0.598,size,1
s101,learn,13,L30,learn,0,-1.84,0,0,1,0.399,size,1
s101,learn,14,L11,learn,0.64,0,1,0,0,2.233,size,1
s101,learn,15,L16,learn,0,0.64,1,1,1,0.601,size,1
s101,learn,16,L21,learn,-1.301064,-1.301064,0,0,1,0.804,size,1
s101,learn,17,L18,learn,-0.38636,0.10352,1,1,1,0.515,size,1
s101,learn,18,L2,learn,0.452544,0.452544,1,1,1,0.582,size,1
s101,learn,19,L6,learn,0.62,-1.07384,0,0,1,0.582,size,1
s101,learn,20,L27,learn,1.301064,-1.301064,0,0,1,0.485,size,1
s101,learn,21,L24,learn,-0.62,1.07384,0,1,0,0.42,size,1
s101,learn,22,L14,learn,0.38636,0.10352,1,1,1,0.816,size,1
s101,learn,23,L10,learn,0,1.84,0,0,1,0.748,size,1
s101,learn,24,L28,learn,-0.64,0,1,1,1,0.903,size,1
s101,learn,25,L17,learn,-0.452544,-0.452544,1,0,0,0.665,size,1
s101,learn,26,L7,learn,-0.10352,0.38636,1,1,1,0.947,size,1
s101,learn,27,L15,learn,-1.301064,1.301064,0,0,1,0.965,size,1
s101,learn,28,L29,learn,-1.84,0,0,1,0,0.964,size,1
s101,learn,29,L8,learn,1.84,0,0,1,0,0.749,size,1
s101,learn,30,L4,learn,-0.452544,0.452544,1,1,1,0.899,size,1
s101,learn,31,L9,learn,0,-0.64,1,0,0,0.934,size,1
s101,learn,32,L32,learn,0.10352,-0.38636,1,1,1,0.53,size,1
s101,learn,33,L1,learn,-0.38636,-0.10352,1,1,1,0.533,size,1
s101,learn,34,L6,learn,0.62,-1.07384,0,0,1,0.753,size,1
s101,learn,35,L22,learn,1.07384,-0.62,0,0,1,0.437,size,1
s101,learn,36,L28,learn,-0.64,0,1,1,1,0.749,size,1
s101,learn,37,L4,learn,-0.452544,0.452544,1,1,1,1.232,size,1
s101,learn,38,L7,learn,-0.10352,0.38636,1,1,1,0.582,size,1
s101,learn,39,L29,learn,-1.84,0,0,0,1,0.803,size,1
s101,learn,40,L10,learn,0,1.84,0,1,0,0.652,size,1
s101,learn,41,L27,learn,1.301064,-1.301064,0,1,0,0.932,size,1
s101,learn,42,L26,learn,-1.07384,0.62,0,1,0,0.832,size,1
s101,learn,43,L21,learn,-1.301064,-1.301064,0,0,1,0.932,size,1
s101,learn,44,L32,learn,0.10352,-0.38636,1,0,0,0.632,size,1
s101,learn,45,L20,learn,0.10352,0.38636,1,1,1,0.821,size,1
s101,learn,46,L12,learn,0.452544,-0.452544,1,1,1,1.081,size,1
s101,learn,47,L11,learn,0.64,0,1,1,1,0.682,size,1
s101,learn,48,L5,learn,1.07384,0.62,0,0,1,0.915,size,1
s101,learn,49,L13,learn,-0.62,-1.07384,0,0,1,0.963,size,1
s101,learn,50,L24,learn,-0.62,1.07384,0,0,1,1.129,size,1
s101,learn,51,L15,learn,-1.301064,1.301064,0,0,1,0.699,size,1
s101,learn,52,L14,learn,0.38636,0.10352,1,1,1,1.215,size,1
s101,learn,53,L25,learn,-1.07384,-0.62,0,1,0,1.232,size,1
s101,learn,54,L16,learn,0,0.64,1,1,1,0.84,size,1
s101,learn,55,L2,learn,0.452544,0.452544,1,1,1,1.282,size,1
s101,learn,56,L31,learn,0.38636,-0.10352,1,0,0,0.685,size,1
s101,learn,57,L23,learn,1.301064,1.301064,0,0,1,0.787,size,1
s101,learn,58,L17,learn,-0.452544,-0.452544,1,1,1,1.515,size,1
s101,learn,59,L9,learn,0,-0.64,1,0,0,1.155,size,1
s101,learn,60,L19,learn,-0.10352,-0.38636,1,1,1,0.95,size,1
s101,learn,61,L30,learn,0,-1.84,0,0,1,0.736,size,1
s101,learn,62,L18,learn,-0.38636,0.10352,1,1,1,1.284,size,1
s101,learn,63,L8,learn,1.84,0,0,0,1,0.9,size,1
s101,learn,64,L3,learn,0.62,1.07384,0,0,1,1.732,size,1
s101,learn,65,L12,learn,0.452544,-0.452544,1,1,1,1.666,size,1
s101,learn,66,L25,learn,-1.07384,-0.62,0,0,1,0.716,size,1
s101,learn,67,L7,learn,-0.10352,0.38636,1,1,1,1.489,size,1
s101,learn,68,L27,learn,1.301064,-1.301064,0,0,1,0.949,size,1
s101,learn,69,L1,learn,-0.38636,-0.10352,1,1,1,1.066,size,1
s101,learn,70,L20,learn,0.10352,0.38636,1,1,1,1.015,size,1
s101,learn,71,L19,learn,-0.10352,-0.38636,1,1,1,0.782,size,1
s101,learn,72,L14,learn,0.38636,0.10352,1,1,1,0.834,size,1
s101,learn,73,L11,learn,0.64,0,1,1,1,0.618,size,1
s101,learn,74,L31,learn,0.38636,-0.10352,1,1,1,0.733,size,1
s101,learn,75,L26,learn,-1.07384,0.62,0,0,1,1.415,size,1
s101,learn,76,L30,learn,0,-1.84,0,0,1,0.784,size,1
s101,learn,77,L16,learn,0,0.64,1,1,1,1.131,size,1
s101,learn,78,L18,learn,-0.38636,0.10352,1,1,1,0.765,size,1
s101,learn,79,L13,learn,-0.62,-1.07384,0,0,1,0.985,size,1
s101,learn,80,L17,learn,-0.452544,-0.452544,1,1,1,0.865,size,1
s101,learn,81,L23,learn,1.301064,1.301064,0,0,1,0.882,size,1
s101,learn,82,L8,learn,1.84,0,0,0,1,0.832,size,1
s101,learn,83,L29,learn,-1.84,0,0,0,1,0.865,size,1
s101,learn,84,L9,learn,0,-0.64,1,1,1,0.583,size,1
s101,learn,85,L3,learn,0.62,1.07384,0,1,0,1.368,size,1
s101,learn,86,L6,learn,0.62,-1.07384,0,0,1,1.052,size,1
s101,learn,87,L4,learn,-0.452544,0.452544,1,1,1,1.215,size,1
s101,learn,88,L22,learn,1.07384,-0.62,0,0,1,1.032,size,1
s101,learn,89,L5,learn,1.07384,0.62,0,0,1,0.949,size,1
s101,learn,90,L28,learn,-0.64,0,1,1,1,0.749,size,1
s101,learn,91,L15,learn,-1.301064,1.301064,0,0,1,0.715,size,1
s101,learn,92,L32,learn,0.10352,-0.38636,1,1,1,1.201,size,1
s101,learn,93,L24,learn,-0.62,1.07384,0,1,0,1.082,size,1
s101,learn,94,L10,learn,0,1.84,0,0,1,0.732,size,1
s101,learn,95,L21,learn,-1.301064,-1.301064,0,0,1,0.682,size,1
s101,learn,96,L2,learn,0.452544,0.452544,1,1,1,1.148,size,1
s101,learn,97,L2,learn,0.452544,0.452544,1,1,1,0.665,size,1
s101,learn,98,L7,learn,-0.10352,0.38636,1,1,1,0.815,size,1
s101,learn,99,L32,learn,0.10352,-0.38636,1,1,1,0.715,size,1
s101,learn,100,L20,learn,0.10352,0.38636,1,1,1,0.566,size,1
s101,learn,101,L22,learn,1.07384,-0.62,0,0,1,0.933,size,1
s101,learn,102,L24,learn,-0.62,1.07384,0,1,0,0.915,size,1
s101,learn,103,L26,learn,-1.07384,0.62,0,0,1,1.516,size,1
s101,learn,104,L18,learn,-0.38636,0.10352,1,1,1,0.832,size,1
s101,learn,105,L25,learn,-1.07384,-0.62,0,1,0,0.449,size,1
s101,learn,106,L4,learn,-0.452544,0.452544,1,1,1,0.632,size,1
s101,learn,107,L31,learn,0.38636,-0.10352,1,1,1,1.116,size,1
s101,learn,108,L30,learn,0,-1.84,0,0,1,0.616,size,1
s101,learn,109,L14,learn,0.38636,0.10352,1,0,0,1.548,size,1
s101,learn,110,L10,learn,0,1.84,0,0,1,0.798,size,1
s101,learn,111,L9,learn,0,-0.64,1,1,1,0.799,size,1
s101,learn,112,L16,learn,0,0.64,1,1,1,0.399,size,1
s101,learn,113,L13,learn,-0.62,-1.07384,0,0,1,1.2,size,1
s101,learn,114,L3,learn,0.62,1.07384,0,0,1,1.098,size,1
s101,learn,115,L23,learn,1.301064,1.301064,0,0,1,0.471,size,1
s101,learn,116,L12,learn,0.452544,-0.452544,1,0,0,0.782,size,1
s101,learn,117,L27,learn,1.301064,-1.301064,0,0,1,0.673,size,1
s101,learn,118,L28,learn,-0.64,0,1,1,1,0.831,size,1
s101,learn,119,L19,learn,-0.10352,-0.38636,1,1,1,0.665,size,1
s101,learn,120,L17,learn,-0.452544,-0.452544,1,1,1,0.665,size,1
s101,learn,121,L29,learn,-1.84,0,0,0,1,0.604,size,1
s101,learn,122,L1,learn,-0.38636,-0.10352,1,1,1,0.665,size,1
s101,learn,123,L6,learn,0.62,-1.07384,0,1,0,0.816,size,1
s101,learn,124,L11,learn,0.64,0,1,0,0,0.815,size,1
s101,learn,125,L8,learn,1.84,0,0,0,1,0.814,size,1
s101,learn,126,L15,learn,-1.301064,1.301064,0,0,1,1.435,size,1
s101,learn,127,L21,learn,-1.301064,-1.301064,0,0,1,0.788,size,1
s101,learn,128,L5,learn,1.07384,0.62,0,0,1,0.966,size,1
s101,learn,129,L4,learn,-0.452544,0.452544,1,1,1,0.516,size,1
s101,learn,130,L20,learn,0.10352,0.38636,1,1,1,0.416,size,1
s101,learn,131,L16,learn,0,0.64,1,1,1,0.402,size,1
s101,learn,132,L13,learn,-0.62,-1.07384,0,1,0,0.415,size,1
s101,learn,133,L11,learn,0.64,0,1,1,1,1.348,size,1
s101,learn,134,L18,learn,-0.38636,0.10352,1,1,1,0.454,size,1
s101,learn,135,L14,learn,0.38636,0.10352,1,1,1,0.449,size,1
s101,learn,136,L15,learn,-1.301064,1.301064,0,0,1,0.766,size,1
s101,learn,137,L5,learn,1.07384,0.62,0,0,1,1,size,1
s101,learn,138,L1,learn,-0.38636,-0.10352,1,1,1,0.565,size,1
s101,learn,139,L8,learn,1.84,0,0,0,1,0.565,size,1
s101,learn,140,L32,learn,0.10352,-0.38636,1,1,1,0.966,size,1
s101,learn,141,L26,learn,-1.07384,0.62,0,1,0,1.116,size,1
s101,learn,142,L30,learn,0,-1.84,0,0,1,0.865,size,1
s101,learn,143,L23,learn,1.301064,1.301064,0,0,1,0.632,size,1
s101,learn,144,L24,learn,-0.62,1.07384,0,1,0,0.95,size,1
s101,learn,145,L29,learn,-1.84,0,0,0,1,0.632,size,1
s101,learn,146,L2,learn,0.452544,0.452544,1,1,1,0.848,size,1
s101,learn,147,L7,learn,-0.10352,0.38636,1,1,1,0.801,size,1
s101,learn,148,L6,learn,0.62,-1.07384,0,0,1,1.155,size,1
s101,learn,149,L17,learn,-0.452544,-0.452544,1,1,1,0.687,size,1
s101,learn,150,L25,learn,-1.07384,-0.62,0,1,0,0.932,size,1
s101,learn,151,L19,learn,-0.10352,-0.38636,1,1,1,0.588,size,1
s101,learn,152,L28,learn,-0.64,0,1,1,1,0.421,size,1
s101,learn,153,L9,learn,0,-0.64,1,1,1,0.565,size,1
s101,learn,154,L21,learn,-1.301064,-1.301064,0,0,1,0.732,size,1
s101,learn,155,L3,learn,0.62,1.07384,0,0,1,1.465,size,1
s101,learn,156,L27,learn,1.301064,-1.301064,0,0,1,0.798,size,1
s101,learn,157,L22,learn,1.07384,-0.62,0,0,1,0.732,size,1
s101,learn,158,L10,learn,0,1.84,0,1,0,0.548,size,1
s101,learn,159,L12,learn,0.452544,-0.452544,1,1,1,0.865,size,1
s101,learn,160,L31,learn,0.38636,-0.10352,1,1,1,0.885,size,1
s101,learn,161,L9,learn,0,-0.64,1,1,1,0.754,size,1
s101,learn,162,L12,learn,0.452544,-0.452544,1,1,1,0.548,size,1
s101,learn,163,L15,learn,-1.301064,1.301064,0,0,1,0.721,size,1
s101,learn,164,L3,learn,0.62,1.07384,0,1,0,0.95,size,1
s101,learn,165,L31,learn,0.38636,-0.10352,1,0,0,0.649,size,1
s101,learn,166,L7,learn,-0.10352,0.38636,1,1,1,0.749,size,1
s101,learn,167,L18,learn,-0.38636,0.10352,1,1,1,0.531,size,1
s101,learn,168,L6,learn,0.62,-1.07384,0,1,0,0.965,size,1
s101,learn,169,L14,learn,0.38636,0.10352,1,0,0,0.834,size,1
s101,learn,170,L5,learn,1.07384,0.62,0,0,1,1.532,size,1
s101,learn,171,L11,learn,0.64,0,1,1,1,0.798,size,1
s101,learn,172,L23,learn,1.301064,1.301064,0,0,1,0.673,size,1
s101,learn,173,L26,learn,-1.07384,0.62,0,1,0,0.716,size,1
s101,learn,174,L13,learn,-0.62,-1.07384,0,1,0,0.782,size,1
s101,learn,175,L22,learn,1.07384,-0.62,0,0,1,1.665,size,1
s101,learn,176,L25,learn,-1.07384,-0.62,0,0,1,0.948,size,1
s101,learn,177,L4,learn,-0.452544,0.452544,1,1,1,0.649,size,1
s101,learn,178,L1,learn,-0.38636,-0.10352,1,1,1,0.482,size,1
s101,learn,179,L21,learn,-1.301064,-1.301064,0,0,1,0.648,size,1
s101,learn,180,L30,learn,0,-1.84,0,0,1,0.948,size,1
s101,learn,181,L27,learn,1.301064,-1.301064,0,0,1,1.498,size,1
s101,learn,182,L20,learn,0.10352,0.38636,1,1,1,0.732,size,1
s101,learn,183,L19,learn,-0.10352,-0.38636,1,1,1,0.466,size,1
s101,learn,184,L2,learn,0.452544,0.452544,1,1,1,0.453,size,1
s101,learn,185,L16,learn,0,0.64,1,1,1,0.615,size,1
s101,learn,186,L28,learn,-0.64,0,1,1,1,0.716,size,1
s101,learn,187,L32,learn,0.10352,-0.38636,1,1,1,0.699,size,1
s101,learn,188,L29,learn,-1.84,0,0,0,1,0.665,size,1
s101,learn,189,L10,learn,0,1.84,0,0,1,0.903,size,1
s101,learn,190,L8,learn,1.84,0,0,0,1,0.865,size,1
s101,learn,191,L24,learn,-0.62,1.07384,0,1,0,0.982,size,1
s101,learn,192,L17,learn,-0.452544,-0.452544,1,0,0,0.749,size,1
s101,learn,193,L10,learn,0,1.84,0,0,1,0.914,size,1
s101,learn,194,L13,learn,-0.62,-1.07384,0,1,0,0.917,size,1
s101,learn,195,L24,learn,-0.62,1.07384,0,1,0,1.732,size,1
s101,learn,196,L12,learn,0.452544,-0.452544,1,1,1,1.103,size,1
s101,learn,197,L16,learn,0,0.64,1,1,1,0.882,size,1
s101,learn,198,L4,learn,-0.452544,0.452544,1,1,1,1.365,size,1
s101,learn,199,L22,learn,1.07384,-0.62,0,1,0,1.315,size,1
s101,learn,200,L17,learn,-0.452544,-0.452544,1,1,1,0.715,size,1
s101,learn,201,L5,learn,1.07384,0.62,0,0,1,2.015,size,1
s101,learn,202,L23,learn,1.301064,1.301064,0,0,1,0.737,size,1
s101,learn,203,L19,learn,-0.10352,-0.38636,1,1,1,0.715,size,1
s101,learn,204,L27,learn,1.301064,-1.301064,0,0,1,0.965,size,1
s101,learn,205,L18,learn,-0.38636,0.10352,1,1,1,0.698,size,1
s101,learn,206,L11,learn,0.64,0,1,1,1,0.748,size,1
s101,learn,207,L25,learn,-1.07384,-0.62,0,1,0,1.083,size,1
s101,learn,208,L29,learn,-1.84,0,0,0,1,0.668,size,1
s101,learn,209,L1,learn,-0.38636,-0.10352,1,1,1,0.832,size,1
s101,learn,210,L7,learn,-0.10352,0.38636,1,1,1,0.555,size,1
s101,learn,211,L26,learn,-1.07384,0.62,0,1,0,1.833,size,1
s101,learn,212,L8,learn,1.84,0,0,0,1,0.682,size,1
s101,learn,213,L20,learn,0.10352,0.38636,1,1,1,0.732,size,1
s101,learn,214,L30,learn,0,-1.84,0,0,1,0.915,size,1
s101,learn,215,L28,learn,-0.64,0,1,1,1,0.885,size,1
s101,learn,216,L2,learn,0.452544,0.452544,1,1,1,0.819,size,1
s101,learn,217,L6,learn,0.62,-1.07384,0,1,0,1.832,size,1
s101,learn,218,L3,learn,0.62,1.07384,0,0,1,0.749,size,1
s101,learn,219,L32,learn,0.10352,-0.38636,1,1,1,1.032,size,1
s101,learn,220,L9,learn,0,-0.64,1,1,1,0.699,size,1
s101,learn,221,L15,learn,-1.301064,1.301064,0,0,1,0.632,size,1
s101,learn,222,L14,learn,0.38636,0.10352,1,1,1,0.948,size,1
s101,learn,223,L21,learn,-1.301064,-1.301064,0,0,1,0.715,size,1
s101,learn,224,L31,learn,0.38636,-0.10352,1,1,1,0.519,size,1
s101,learn,225,L17,learn,-0.452544,-0.452544,1,1,1,0.501,size,1
s101,learn,226,L22,learn,1.07384,-0.62,0,0,1,1.482,size,1
s101,learn,227,L3,learn,0.62,1.07384,0,1,0,1.282,size,1
s101,learn,228,L28,learn,-0.64,0,1,1,1,0.482,size,1
s101,learn,229,L26,learn,-1.07384,0.62,0,1,0,0.421,size,1
s101,learn,230,L29,learn,-1.84,0,0,0,1,0.732,size,1
s101,learn,231,L14,learn,0.38636,0.10352,1,1,1,0.865,size,1
s101,learn,232,L5,learn,1.07384,0.62,0,0,1,0.688,size,1
s101,learn,233,L18,learn,-0.38636,0.10352,1,1,1,0.619,size,1
s101,learn,234,L25,learn,-1.07384,-0.62,0,1,0,0.669,size,1
s101,learn,235,L16,learn,0,0.64,1,1,1,0.664,size,1
s101,learn,236,L12,learn,0.452544,-0.452544,1,1,1,0.606,size,1
s101,learn,237,L2,learn,0.452544,0.452544,1,1,1,0.562,size,1
s101,learn,238,L10,learn,0,1.84,0,0,1,0.623,size,1
s101,learn,239,L8,learn,1.84,0,0,0,1,0.731,size,1
s101,learn,240,L4,learn,-0.452544,0.452544,1,1,1,0.726,size,1
s101,learn,241,L19,learn,-0.10352,-0.38636,1,1,1,0.491,size,1
s101,learn,242,L13,learn,-0.62,-1.07384,0,0,1,0.719,size,1
s101,learn,243,L15,learn,-1.301064,1.301064,0,1,0,1.245,size,1
s101,learn,244,L9,learn,0,-0.64,1,1,1,0.693,size,1
s101,learn,245,L20,learn,0.10352,0.38636,1,1,1,0.668,size,1
s101,learn,246,L30,learn,0,-1.84,0,0,1,0.658,size,1
s101,learn,247,L7,learn,-0.10352,0.38636,1,1,1,0.937,size,1
s101,learn,248,L1,learn,-0.38636,-0.10352,1,1,1,0.502,size,1
s101,learn,249,L11,learn,0.64,0,1,1,1,1.012,size,1
s101,learn,250,L21,learn,-1.301064,-1.301064,0,0,1,0.574,size,1
s101,learn,251,L24,learn,-0.62,1.07384,0,1,0,0.757,size,1
s101,learn,252,L27,learn,1.301064,-1.301064,0,0,1,1.178,size,1
s101,learn,253,L23,learn,1.301064,1.301064,0,0,1,0.86,size,1
s101,learn,254,L32,learn,0.10352,-0.38636,1,1,1,0.893,size,1
s101,learn,255,L31,learn,0.38636,-0.10352,1,1,1,0.455,size,1
s101,learn,256,L6,learn,0.62,-1.07384,0,1,0,0.722,size,1
s101,learn,257,L19,learn,-0.10352,-0.38636,1,1,1,0.534,size,1
s101,learn,258,L23,learn,1.301064,1.301064,0,0,1,0.755,size,1
s101,learn,259,L18,learn,-0.38636,0.10352,1,1,1,0.496,size,1
s101,learn,260,L32,learn,0.10352,-0.38636,1,1,1,0.476,size,1
s101,learn,261,L29,learn,-1.84,0,0,0,1,0.58,size,1
s101,learn,262,L15,learn,-1.301064,1.301064,0,0,1,0.829,size,1
s101,learn,263,L24,learn,-0.62,1.07384,0,1,0,0.881,size,1
s101,learn,264,L6,learn,0.62,-1.07384,0,1,0,0.494,size,1
s101,learn,265,L20,learn,0.10352,0.38636,1,1,1,0.68,size,1
s101,learn,266,L3,learn,0.62,1.07384,0,1,0,0.673,size,1
s101,learn,267,L1,learn,-0.38636,-0.10352,1,1,1,0.548,size,1
s101,learn,268,L2,learn,0.452544,0.452544,1,1,1,0.901,size,1
s101,learn,269,L5,learn,1.07384,0.62,0,0,1,1.226,size,1
s101,learn,270,L9,learn,0,-0.64,1,1,1,0.867,size,1
s101,learn,271,L28,learn,-0.64,0,1,1,1,0.511,size,1
s101,learn,272,L7,learn,-0.10352,0.38636,1,1,1,0.727,size,1
s101,learn,273,L14,learn,0.38636,0.10352,1,1,1,0.687,size,1
s101,learn,274,L22,learn,1.07384,-0.62,0,0,1,1.198,size,1
s101,learn,275,L8,learn,1.84,0,0,0,1,0.715,size,1
s101,learn,276,L27,learn,1.301064,-1.301064,0,0,1,0.481,size,1
s101,learn,277,L13,learn,-0.62,-1.07384,0,1,0,0.965,size,1
s101,learn,278,L4,learn,-0.452544,0.452544,1,1,1,0.686,size,1
s101,learn,279,L21,learn,-1.301064,-1.301064,0,0,1,0.653,size,1
s101,learn,280,L30,learn,0,-1.84,0,0,1,0.715,size,1
s101,learn,281,L17,learn,-0.452544,-0.452544,1,1,1,0.815,size,1
s101,learn,282,L26,learn,-1.07384,0.62,0,0,1,1.748,size,1
s101,learn,283,L16,learn,0,0.64,1,1,1,0.735,size,1
s101,learn,284,L31,learn,0.38636,-0.10352,1,1,1,0.782,size,1
s101,learn,285,L25,learn,-1.07384,-0.62,0,0,1,2.182,size,1
s101,learn,286,L11,learn,0.64,0,1,1,1,1.031,size,1
s101,learn,287,L12,learn,0.452544,-0.452544,1,1,1,0.665,size,1
s101,learn,288,L10,learn,0,1.84,0,0,1,0.733,size,1
s101,learn,289,L21,learn,-1.301064,-1.301064,0,0,1,0.681,size,1
s101,learn,290,L30,learn,0,-1.84,0,0,1,0.898,size,1
s101,learn,291,L6,learn,0.62,-1.07384,0,0,1,0.983,size,1
s101,learn,292,L20,learn,0.10352,0.38636,1,1,1,0.732,size,1
s101,learn,293,L18,learn,-0.38636,0.10352,1,1,1,0.549,size,1
s101,learn,294,L10,learn,0,1.84,0,0,1,0.905,size,1
s101,learn,295,L23,learn,1.301064,1.301064,0,0,1,1.348,size,1
s101,learn,296,L3,learn,0.62,1.07384,0,1,0,0.732,size,1
s101,learn,297,L9,learn,0,-0.64,1,1,1,0.598,size,1
s101,learn,298,L1,learn,-0.38636,-0.10352,1,1,1,0.698,size,1
s101,learn,299,L31,learn,0.38636,-0.10352,1,1,1,0.598,size,1
s101,learn,300,L29,learn,-1.84,0,0,0,1,0.805,size,1
s101,learn,301,L12,learn,0.452544,-0.452544,1,0,0,0.932,size,1
s101,learn,302,L28,learn,-0.64,0,1,1,1,0.649,size,1
s101,learn,303,L7,learn,-0.10352,0.38636,1,1,1,0.637,size,1
s101,learn,304,L13,learn,-0.62,-1.07384,0,1,0,1.084,size,1
s101,learn,305,L11,learn,0.64,0,1,1,1,0.916,size,1
s101,learn,306,L19,learn,-0.10352,-0.38636,1,1,1,0.616,size,1
s101,learn,307,L5,learn,1.07384,0.62,0,0,1,0.815,size,1
s101,learn,308,L15,learn,-1.301064,1.301064,0,0,1,0.816,size,1
s101,learn,309,L24,learn,-0.62,1.07384,0,0,1,0.905,size,1
s101,learn,310,L4,learn,-0.452544,0.452544,1,0,0,0.632,size,1
s101,learn,311,L8,learn,1.84,0,0,0,1,0.599,size,1
s101,learn,312,L26,learn,-1.07384,0.62,0,0,1,1.048,size,1
s101,learn,313,L32,learn,0.10352,-0.38636,1,1,1,1.082,size,1
s101,learn,314,L25,learn,-1.07384,-0.62,0,1,0,1.732,size,1
s101,learn,315,L14,learn,0.38636,0.10352,1,1,1,0.932,size,1
s101,learn,316,L17,learn,-0.452544,-0.452544,1,1,1,0.531,size,1
s101,learn,317,L2,learn,0.452544,0.452544,1,0,0,1.398,size,1
s101,learn,318,L27,learn,1.301064,-1.301064,0,0,1,0.868,size,1
s101,learn,319,L22,learn,1.07384,-0.62,0,0,1,0.815,size,1
s101,learn,320,L16,learn,0,0.64,1,1,1,1.582,size,1
s101,learn,321,L25,learn,-1.07384,-0.62,0,0,1,1.103,size,1
s101,learn,322,L21,learn,-1.301064,-1.301064,0,0,1,0.732,size,1
s101,learn,323,L30,learn,0,-1.84,0,0,1,1.104,size,1
s101,learn,324,L19,learn,-0.10352,-0.38636,1,1,1,1.666,size,1
s101,learn,325,L4,learn,-0.452544,0.452544,1,1,1,1.098,size,1
s101,learn,326,L3,learn,0.62,1.07384,0,0,1,1.65,size,1
s101,learn,327,L28,learn,-0.64,0,1,1,1,1.398,size,1
s101,learn,328,L23,learn,1.301064,1.301064,0,0,1,1.331,size,1
s101,learn,329,L13,learn,-0.62,-1.07384,0,1,0,2.232,size,1
s101,learn,330,L10,learn,0,1.84,0,0,1,0.698,size,1
s101,learn,331,L32,learn,0.10352,-0.38636,1,1,1,1.765,size,1
s101,learn,332,L6,learn,0.62,-1.07384,0,0,1,1.688,size,1
s101,learn,333,L12,learn,0.452544,-0.452544,1,0,0,1.632,size,1
s101,learn,334,L11,learn,0.64,0,1,1,1,0.782,size,1
s101,learn,335,L16,learn,0,0.64,1,1,1,1.065,size,1
s101,learn,336,L5,learn,1.07384,0.62,0,0,1,0.751,size,1
s101,learn,337,L14,learn,0.38636,0.10352,1,1,1,1.032,size,1
s101,learn,338,L17,learn,-0.452544,-0.452544,1,1,1,1.148,size,1
s101,learn,339,L1,learn,-0.38636,-0.10352,1,1,1,0.765,size,1
s101,learn,340,L27,learn,1.301064,-1.301064,0,0,1,0.865,size,1
s101,learn,341,L22,learn,1.07384,-0.62,0,0,1,0.815,size,1
s101,learn,342,L8,learn,1.84,0,0,0,1,1.582,size,1
s101,learn,343,L20,learn,0.10352,0.38636,1,1,1,1.453,size,1
s101,learn,344,L31,learn,0.38636,-0.10352,1,1,1,0.965,size,1
s101,learn,345,L24,learn,-0.62,1.07384,0,0,1,1.282,size,1
s101,learn,346,L18,learn,-0.38636,0.10352,1,1,1,1.049,size,1
s101,learn,347,L29,learn,-1.84,0,0,0,1,0.783,size,1
s101,learn,348,L26,learn,-1.07384,0.62,0,0,1,1.682,size,1
s101,learn,349,L7,learn,-0.10352,0.38636,1,1,1,1.165,size,1
s101,learn,350,L15,learn,-1.301064,1.301064,0,0,1,1.716,size,1
s101,learn,351,L2,learn,0.452544,0.452544,1,1,1,1.533,size,1
s101,learn,352,L9,learn,0,-0.64,1,1,1,1.072,size,1
s101,learn,353,L32,learn,0.10352,-0.38636,1,1,1,0.887,size,1
s101,learn,354,L11,learn,0.64,0,1,1,1,0.882,size,1
s101,learn,355,L7,learn,-0.10352,0.38636,1,1,1,0.532,size,1
s101,learn,356,L17,learn,-0.452544,-0.452544,1,1,1,2.899,size,1
s101,learn,357,L14,learn,0.38636,0.10352,1,1,1,1.021,size,1
s101,learn,358,L29,learn,-1.84,0,0,0,1,0.565,size,1
s101,learn,359,L2,learn,0.452544,0.452544,1,1,1,0.815,size,1
s101,learn,360,L12,learn,0.452544,-0.452544,1,1,1,0.799,size,1
s101,learn,361,L23,learn,1.301064,1.301064,0,0,1,0.599,size,1
s101,learn,362,L18,learn,-0.38636,0.10352,1,1,1,2.632,size,1
s101,learn,363,L4,learn,-0.452544,0.452544,1,1,1,0.532,size,1
s101,learn,364,L21,learn,-1.301064,-1.301064,0,0,1,0.78,size,1
s101,learn,365,L8,learn,1.84,0,0,0,1,0.735,size,1
s101,learn,366,L28,learn,-0.64,0,1,1,1,1.009,size,1
s101,transfer,367,L4,learn,-0.452544,0.452544,1,1,1,0.648,size,1
s101,transfer,368,T2,transfer,0.3067,-0.7667,,1,,1.382,size,1
s101,transfer,369,L5,learn,1.07384,0.62,0,0,1,0.74,size,1
s101,transfer,370,L28,learn,-0.64,0,1,1,1,0.666,size,1
s101,transfer,371,T5,transfer,-0.7667,0.3067,,1,,0.719,size,1
s101,transfer,372,L16,learn,0,0.64,1,1,1,0.799,size,1
s101,transfer,373,L29,learn,-1.84,0,0,0,1,0.566,size,1
s101,transfer,374,T8,transfer,0.3067,0.7667,,1,,1.266,size,1
s101,transfer,375,L30,learn,0,-1.84,0,0,1,0.706,size,1
s101,transfer,376,L2,learn,0.452544,0.452544,1,1,1,0.916,size,1
s101,transfer,377,T1,transfer,-0.3067,-0.7667,,1,,0.689,size,1
s101,transfer,378,L24,learn,-0.62,1.07384,0,1,0,1.748,size,1
s101,transfer,379,L2,learn,0.452544,0.452544,1,1,1,0.783,size,1
s101,transfer,380,L19,learn,-0.10352,-0.38636,1,1,1,0.58,size,1
s101,transfer,381,T6,transfer,0.7667,0.3067,,0,,0.703,size,1
s101,transfer,382,L20,learn,0.10352,0.38636,1,1,1,0.75,size,1
s101,transfer,383,L16,learn,0,0.64,1,1,1,0.5,size,1
s101,transfer,384,T8,transfer,0.3067,0.7667,,1,,0.467,size,1
s101,transfer,385,T7,transfer,-0.3067,0.7667,,1,,0.801,size,1
s101,transfer,386,L7,learn,-0.10352,0.38636,1,1,1,0.55,size,1
s101,transfer,387,L27,learn,1.301064,-1.301064,0,0,1,0.584,size,1
s101,transfer,388,L21,learn,-1.301064,-1.301064,0,0,1,0.55,size,1
s101,transfer,389,L19,learn,-0.10352,-0.38636,1,1,1,0.834,size,1
s101,transfer,390,L29,learn,-1.84,0,0,0,1,0.567,size,1
s101,transfer,391,L9,learn,0,-0.64,1,1,1,0.6,size,1
s101,transfer,392,T6,transfer,0.7667,0.3067,,1,,0.93,size,1
s101,transfer,393,T3,transfer,-0.7667,-0.3067,,1,,0.615,size,1
s101,transfer,394,T1,transfer,-0.3067,-0.7667,,1,,0.533,size,1
s101,transfer,395,L18,learn,-0.38636,0.10352,1,1,1,0.55,size,1
s101,transfer,396,L7,learn,-0.10352,0.38636,1,1,1,0.451,size,1
s101,transfer,397,T4,transfer,0.7667,-0.3067,,1,,0.65,size,1
s101,transfer,398,L1,learn,-0.38636,-0.10352,1,1,1,0.5,size,1
s101,transfer,399,L11,learn,0.64,0,1,1,1,0.801,size,1
s101,transfer,400,T6,transfer,0.7667,0.3067,,1,,1.05,size,1
s101,transfer,401,L32,learn,0.10352,-0.38636,1,1,1,0.534,size,1
s101,transfer,402,L26,learn,-1.07384,0.62,0,1,0,0.95,size,1
s101,transfer,403,L17,learn,-0.452544,-0.452544,1,1,1,0.582,size,1
s101,transfer,404,L5,learn,1.07384,0.62,0,0,1,1.433,size,1
s101,transfer,405,L20,learn,0.10352,0.38636,1,1,1,0.716,size,1
s101,transfer,406,T3,transfer,-0.7667,-0.3067,,1,,0.584,size,1
s101,transfer,407,T2,transfer,0.3067,-0.7667,,1,,0.555,size,1
s101,transfer,408,L12,learn,0.452544,-0.452544,1,1,1,0.487,size,1
s101,transfer,409,L14,learn,0.38636,0.10352,1,1,1,0.422,size,1
s101,transfer,410,L17,learn,-0.452544,-0.452544,1,1,1,0.632,size,1
s101,transfer,411,L15,learn,-1.301064,1.301064,0,0,1,0.666,size,1
s101,transfer,412,L30,learn,0,-1.84,0,0,1,0.665,size,1
s101,transfer,413,L21,learn,-1.301064,-1.301064,0,0,1,0.503,size,1
s101,transfer,414,L24,learn,-0.62,1.07384,0,0,1,0.982,size,1
s101,transfer,415,T3,transfer,-0.7667,-0.3067,,1,,0.532,size,1
s101,transfer,416,L8,learn,1.84,0,0,0,1,0.717,size,1
s101,transfer,417,L6,learn,0.62,-1.07384,0,0,1,1.186,size,1
s101,transfer,418,L25,learn,-1.07384,-0.62,0,0,1,1.566,size,1
s101,transfer,419,L26,learn,-1.07384,0.62,0,0,1,0.783,size,1
s101,transfer,420,L28,learn,-0.64,0,1,1,1,0.499,size,1
s101,transfer,421,L32,learn,0.10352,-0.38636,1,1,1,0.466,size,1
s101,transfer,422,L22,learn,1.07384,-0.62,0,1,0,1.017,size,1
s101,transfer,423,L18,learn,-0.38636,0.10352,1,1,1,0.465,size,1
s101,transfer,424,L13,learn,-0.62,-1.07384,0,1,0,0.449,size,1
s101,transfer,425,T5,transfer,-0.7667,0.3067,,1,,0.57,size,1
s101,transfer,426,T4,transfer,0.7667,-0.3067,,1,,0.669,size,1
s101,transfer,427,L31,learn,0.38636,-0.10352,1,1,1,0.42,size,1
s101,transfer,428,T5,transfer,-0.7667,0.3067,,1,,0.518,size,1
s101,transfer,429,L22,learn,1.07384,-0.62,0,1,0,0.588,size,1
s101,transfer,430,L10,learn,0,1.84,0,0,1,0.732,size,1
s101,transfer,431,T7,transfer,-0.3067,0.7667,,1,,1.183,size,1
s101,transfer,432,L23,learn,1.301064,1.301064,0,0,1,0.899,size,1
s101,transfer,433,L12,learn,0.452544,-0.452544,1,1,1,0.566,size,1
s101,transfer,434,L14,learn,0.38636,0.10352,1,1,1,0.489,size,1
s101,transfer,435,L3,learn,0.62,1.07384,0,1,0,0.915,size,1
s101,transfer,436,T8,transfer,0.3067,0.7667,,1,,0.432,size,1
s101,transfer,437,L31,learn,0.38636,-0.10352,1,1,1,0.552,size,1
s101,transfer,438,L8,learn,1.84,0,0,0,1,0.733,size,1
s101,transfer,439,T4,transfer,0.7667,-0.3067,,1,,0.532,size,1
s101,transfer,440,L10,learn,0,1.84,0,0,1,0.665,size,1
s101,transfer,441,L3,learn,0.62,1.07384,0,1,0,0.682,size,1
s101,transfer,442,L1,learn,-0.38636,-0.10352,1,1,1,0.549,size,1
s101,transfer,443,T1,transfer,-0.3067,-0.7667,,1,,0.883,size,1
s101,transfer,444,L6,learn,0.62,-1.07384,0,0,1,1.334,size,1
s101,transfer,445,L23,learn,1.301064,1.301064,0,0,1,0.799,size,1
s101,transfer,446,L13,learn,-0.62,-1.07384,0,0,1,2.249,size,1
s101,transfer,447,L27,learn,1.301064,-1.301064,0,0,1,0.735,size,1
s101,transfer,448,T7,transfer,-0.3067,0.7667,,1,,0.733,size,1
s101,transfer,449,L11,learn,0.64,0,1,1,1,0.6,size,1
s101,transfer,450,T2,transfer,0.3067,-0.7667,,1,,0.54,size,1
s101,transfer,451,L4,learn,-0.452544,0.452544,1,1,1,0.698,size,1
s101,transfer,452,L15,learn,-1.301064,1.301064,0,0,1,0.599,size,1
s101,transfer,453,L25,learn,-1.07384,-0.62,0,0,1,1.066,size,1
s101,transfer,454,L9,learn,0,-0.64,1,1,1,0.616,size,1
s101,filler,455,F11,close,0,1.0733,,1,,0.536,size,1
s101,filler,456,F2,close,0,-1.0733,,0,,1.333,size,1
s101,filler,457,F10,corner,0.7667,0.7667,,1,,0.581,size,1
s101,filler,458,F9,corner,-0.7667,0.7667,,0,,1.015,size,1
s101,filler,459,F7,close,1.0733,0,,1,,0.439,size,1
s101,filler,460,F12,far,0,1.5333,,0,,0.688,size,1
s101,filler,461,F5,far,-1.5333,0,,0,,0.616,size,1
s101,filler,462,F8,far,1.5333,0,,1,,0.5,size,1
s101,filler,463,F6,close,-1.0733,0,,0,,0.883,size,1
s101,filler,464,F1,far,0,-1.5333,,1,,0.499,size,1
s101,filler,465,F3,corner,-0.7667,-0.7667,,1,,0.766,size,1
s101,filler,466,F4,corner,0.7667,-0.7667,,1,,0.516,size,1
s102,learn,1,L7,learn,-0.10352,0.38636,1,0,0,0.621,size,0
s102,learn,2,L9,learn,0,-0.64,1,1,1,0.803,size,0
s102,learn,3,L2,learn,0.452544,0.452544,1,1,1,0.837,size,0
s102,learn,4,L11,learn,0.64,0,1,1,1,0.704,size,0
s102,learn,5,L21,learn,-1.301064,-1.301064,0,0,1,0.761,size,0
s102,learn,6,L4,learn,-0.452544,0.452544,1,0,0,1.107,size,0
s102,learn,7,L19,learn,-0.10352,-0.38636,1,1,1,0.838,size,0
s102,learn,8,L25,learn,-1.07384,-0.62,0,0,1,0.715,size,0
s102,learn,9,L22,learn,1.07384,-0.62,0,1,0,0.586,size,0
s102,learn,10,L5,learn,1.07384,0.62,0,0,1,0.97,size,0
s102,learn,11,L28,learn,-0.64,0,1,1,1,1.261,size,0
s102,learn,12,L8,learn,1.84,0,0,0,1,1.157,size,0
s102,learn,13,L18,learn,-0.38636,0.10352,1,1,1,0.67,size,0
s102,learn,14,L16,learn,0,0.64,1,1,1,0.739,size,0
s102,learn,15,L13,learn,-0.62,-1.07384,0,1,0,0.662,size,0
s102,learn,16,L12,learn,0.452544,-0.452544,1,1,1,0.816,size,0
s102,learn,17,L10,learn,0,1.84,0,1,0,0.611,size,0
s102,learn,18,L29,learn,-1.84,0,0,0,1,1.044,size,0
s102,learn,19,L27,learn,1.301064,-1.301064,0,1,0,0.777,size,0
s102,learn,20,L3,learn,0.62,1.07384,0,1,0,0.789,size,0
s102,learn,21,L17,learn,-0.452544,-0.452544,1,1,1,1.125,size,0
s102,learn,22,L23,learn,1.301064,1.301064,0,0,1,0.839,size,0
s102,learn,23,L1,learn,-0.38636,-0.10352,1,1,1,0.987,size,0
s102,learn,24,L14,learn,0.38636,0.10352,1,0,0,0.921,size,0
s102,learn,25,L32,learn,0.10352,-0.38636,1,1,1,0.776,size,0
s102,learn,26,L31,learn,0.38636,-0.10352,1,1,1,0.521,size,0
s102,learn,27,L20,learn,0.10352,0.38636,1,1,1,0.575,size,0
s102,learn,28,L26,learn,-1.07384,0.62,0,0,1,0.503,size,0
s102,learn,29,L24,learn,-0.62,1.07384,0,0,1,0.588,size,0
s102,learn,30,L30,learn,0,-1.84,0,1,0,0.686,size,0
s102,learn,31,L15,learn,-1.301064,1.301064,0,0,1,0.585,size,0
s102,learn,32,L6,learn,0.62,-1.07384,0,1,0,0.858,size,0
s102,learn,33,L29,learn,-1.84,0,0,1,0,0.657,size,0
s102,learn,34,L21,learn,-1.301064,-1.301064,0,0,1,0.57,size,0
s102,learn,35,L31,learn,0.38636,-0.10352,1,1,1,0.839,size,0
s102,learn,36,L15,learn,-1.301064,1.301064,0,0,1,0.56,size,0
s102,learn,37,L6,learn,0.62,-1.07384,0,1,0,0.69,size,0
s102,learn,38,L24,learn,-0.62,1.07384,0,0,1,0.697,size,0
s102,learn,39,L17,learn,-0.452544,-0.452544,1,1,1,0.792,size,0
s102,learn,40,L8,learn,1.84,0,0,1,0,0.637,size,0
s102,learn,41,L27,learn,1.301064,-1.301064,0,0,1,0.712,size,0
s102,learn,42,L23,learn,1.301064,1.301064,0,0,1,0.518,size,0
s102,learn,43,L3,learn,0.62,1.07384,0,0,1,1.001,size,0
s102,learn,44,L32,learn,0.10352,-0.38636,1,1,1,0.651,size,0
s102,learn,45,L7,learn,-0.10352,0.38636,1,1,1,0.603,size,0
s102,learn,46,L28,learn,-0.64,0,1,0,0,0.545,size,0
s102,learn,47,L5,learn,1.07384,0.62,0,0,1,1.013,size,0
s102,learn,48,L14,learn,0.38636,0.10352,1,1,1,0.845,size,0
s102,learn,49,L2,learn,0.452544,0.452544,1,1,1,0.742,size,0
s102,learn,50,L9,learn,0,-0.64,1,0,0,0.588,size,0
s102,learn,51,L12,learn,0.452544,-0.452544,1,1,1,0.975,size,0
s102,learn,52,L11,learn,0.64,0,1,1,1,0.67,size,0
s102,learn,53,L26,learn,-1.07384,0.62,0,0,1,0.573,size,0
s102,learn,54,L1,learn,-0.38636,-0.10352,1,0,0,0.642,size,0
s102,learn,55,L13,learn,-0.62,-1.07384,0,1,0,0.607,size,0
s102,learn,56,L18,learn,-0.38636,0.10352,1,1,1,0.639,size,0
s102,learn,57,L30,learn,0,-1.84,0,0,1,0.487,size,0
s102,learn,58,L16,learn,0,0.64,1,1,1,0.742,size,0
s102,learn,59,L22,learn,1.07384,-0.62,0,1,0,0.674,size,0
s102,learn,60,L10,learn,0,1.84,0,0,1,0.513,size,0
s102,learn,61,L4,learn,-0.452544,0.452544,1,1,1,0.795,size,0
s102,learn,62,L25,learn,-1.07384,-0.62,0,0,1,0.538,size,0
s102,learn,63,L20,learn,0.10352,0.38636,1,1,1,0.641,size,0
s102,learn,64,L19,learn,-0.10352,-0.38636,1,1,1,0.538,size,0
s102,learn,65,L23,learn,1.301064,1.301064,0,0,1,0.612,size,0
s102,learn,66,L24,learn,-0.62,1.07384,0,0,1,0.628,size,0
s102,learn,67,L15,learn,-1.301064,1.301064,0,0,1,0.505,size,0
s102,learn,68,L25,learn,-1.07384,-0.62,0,1,0,0.745,size,0
s102,learn,69,L5,learn,1.07384,0.62,0,0,1,0.929,size,0
s102,learn,70,L26,learn,-1.07384,0.62,0,0,1,0.628,size,0
s102,learn,71,L17,learn,-0.452544,-0.452544,1,1,1,0.587,size,0
s102,learn,72,L21,learn,-1.301064,-1.301064,0,0,1,0.646,size,0
s102,learn,73,L20,learn,0.10352,0.38636,1,1,1,0.761,size,0
s102,learn,74,L1,learn,-0.38636,-0.10352,1,1,1,0.637,size,0
s102,learn,75,L6,learn,0.62,-1.07384,0,0,1,0.588,size,0
s102,learn,76,L28,learn,-0.64,0,1,1,1,0.613,size,0
s102,learn,77,L3,learn,0.62,1.07384,0,0,1,0.563,size,0
s102,learn,78,L9,learn,0,-0.64,1,1,1,0.761,size,0
s102,learn,79,L4,learn,-0.452544,0.452544,1,1,1,0.635,size,0
s102,learn,80,L13,learn,-0.62,-1.07384,0,0,1,0.546,size,0
s102,learn,81,L2,learn,0.452544,0.452544,1,1,1,0.63,size,0
s102,learn,82,L30,learn,0,-1.84,0,0,1,0.596,size,0
s102,learn,83,L7,learn,-0.10352,0.38636,1,1,1,0.646,size,0
s102,learn,84,L27,learn,1.301064,-1.301064,0,0,1,0.577,size,0
s102,learn,85,L18,learn,-0.38636,0.10352,1,1,1,0.537,size,0
s102,learn,86,L14,learn,0.38636,0.10352,1,1,1,0.513,size,0
s102,learn,87,L16,learn,0,0.64,1,1,1,0.687,size,0
s102,learn,88,L12,learn,0.452544,-0.452544,1,1,1,0.779,size,0
s102,learn,89,L31,learn,0.38636,-0.10352,1,1,1,0.537,size,0
s102,learn,90,L29,learn,-1.84,0,0,0,1,0.522,size,0
s102,learn,91,L19,learn,-0.10352,-0.38636,1,1,1,0.629,size,0
s102,learn,92,L11,learn,0.64,0,1,1,1,0.485,size,0
s102,learn,93,L32,learn,0.10352,-0.38636,1,1,1,0.531,size,0
s102,learn,94,L10,learn,0,1.84,0,0,1,0.496,size,0
s102,learn,95,L8,learn,1.84,0,0,1,0,0.582,size,0
s102,learn,96,L22,learn,1.07384,-0.62,0,0,1,0.548,size,0
s102,learn,97,L15,learn,-1.301064,1.301064,0,0,1,0.614,size,0
s102,learn,98,L3,learn,0.62,1.07384,0,1,0,0.697,size,0
s102,learn,99,L29,learn,-1.84,0,0,0,1,0.561,size,0
s102,learn,100,L8,learn,1.84,0,0,0,1,0.583,size,0
s102,learn,101,L22,learn,1.07384,-0.62,0,0,1,0.663,size,0
s102,learn,102,L24,learn,-0.62,1.07384,0,0,1,0.465,size,0
s102,learn,103,L2,learn,0.452544,0.452544,1,1,1,0.597,size,0
s102,learn,104,L6,learn,0.62,-1.07384,0,0,1,0.934,size,0
s102,learn,105,L30,learn,0,-1.84,0,0,1,0.468,size,0
s102,learn,106,L32,learn,0.10352,-0.38636,1,1,1,0.629,size,0
s102,learn,107,L7,learn,-0.10352,0.38636,1,1,1,0.534,size,0
s102,learn,108,L13,learn,-0.62,-1.07384,0,0,1,0.613,size,0
s102,learn,109,L1,learn,-0.38636,-0.10352,1,1,1,0.596,size,0
s102,learn,110,L23,learn,1.301064,1.301064,0,0,1,0.473,size,0
s102,learn,111,L26,learn,-1.07384,0.62,0,1,0,0.829,size,0
s102,learn,112,L18,learn,-0.38636,0.10352,1,1,1,0.68,size,0
s102,learn,113,L10,learn,0,1.84,0,0,1,0.537,size,0
s102,learn,114,L11,learn,0.64,0,1,1,1,0.532,size,0
s102,learn,115,L20,learn,0.10352,0.38636,1,1,1,0.437,size,0
s102,learn,116,L19,learn,-0.10352,-0.38636,1,1,1,0.495,size,0
s102,learn,117,L16,learn,0,0.64,1,1,1,0.496,size,0
s102,learn,118,L4,learn,-0.452544,0.452544,1,1,1,0.512,size,0
s102,learn,119,L5,learn,1.07384,0.62,0,0,1,0.571,size,0
s102,learn,120,L17,learn,-0.452544,-0.452544,1,1,1,0.659,size,0
s102,learn,121,L14,learn,0.38636,0.10352,1,1,1,0.429,size,0
s102,learn,122,L12,learn,0.452544,-0.452544,1,1,1,0.577,size,0
s102,learn,123,L21,learn,-1.301064,-1.301064,0,0,1,0.472,size,0
s102,learn,124,L9,learn,0,-0.64,1,1,1,0.679,size,0
s102,learn,125,L27,learn,1.301064,-1.301064,0,0,1,0.574,size,0
s102,learn,126,L25,learn,-1.07384,-0.62,0,0,1,0.66,size,0
s102,learn,127,L28,learn,-0.64,0,1,1,1,0.693,size,0
s102,learn,128,L31,learn,0.38636,-0.10352,1,1,1,0.557,size,0
s102,learn,129,L6,learn,0.62,-1.07384,0,0,1,0.663,size,0
s102,learn,130,L4,learn,-0.452544,0.452544,1,1,1,0.728,size,0
s102,learn,131,L9,learn,0,-0.64,1,1,1,0.578,size,0
s102,learn,132,L2,learn,0.452544,0.452544,1,1,1,0.529,size,0
s102,learn,133,L20,learn,0.10352,0.38636,1,1,1,0.611,size,0
s102,learn,134,L13,learn,-0.62,-1.07384,0,0,1,0.614,size,0
s102,learn,135,L30,learn,0,-1.84,0,0,1,0.51,size,0
s102,learn,136,L10,learn,0,1.84,0,0,1,0.467,size,0
s102,learn,137,L22,learn,1.07384,-0.62,0,1,0,0.569,size,0
s102,learn,138,L24,learn,-0.62,1.07384,0,0,1,0.716,size,0
s102,learn,139,L27,learn,1.301064,-1.301064,0,0,1,0.632,size,0
s102,learn,140,L15,learn,-1.301064,1.301064,0,0,1,0.522,size,0
s102,learn,141,L3,learn,0.62,1.07384,0,0,1,0.573,size,0
s102,learn,142,L23,learn,1.301064,1.301064,0,0,1,0.428,size,0
s102,learn,143,L8,learn,1.84,0,0,0,1,0.447,size,0
s102,learn,144,L29,learn,-1.84,0,0,0,1,0.542,size,0
s102,learn,145,L18,learn,-0.38636,0.10352,1,0,0,0.446,size,0
s102,learn,146,L26,learn,-1.07384,0.62,0,0,1,0.653,size,0
s102,learn,147,L31,learn,0.38636,-0.10352,1,1,1,0.717,size,0
s102,learn,148,L5,learn,1.07384,0.62,0,0,1,0.628,size,0
s102,learn,149,L1,learn,-0.38636,-0.10352,1,1,1,0.611,size,0
s102,learn,150,L14,learn,0.38636,0.10352,1,1,1,0.706,size,0
s102,transfer,151,L13,learn,-0.62,-1.07384,0,0,1,0.797,size,0
s102,transfer,152,T1,transfer,-0.3067,-0.7667,,0,,0.84,size,0
s102,transfer,153,L17,learn,-0.452544,-0.452544,1,1,1,0.553,size,0
s102,transfer,154,L14,learn,0.38636,0.10352,1,1,1,0.729,size,0
s102,transfer,155,L1,learn,-0.38636,-0.10352,1,1,1,0.829,size,0
s102,transfer,156,T3,transfer,-0.7667,-0.3067,,0,,0.758,size,0
s102,transfer,157,L24,learn,-0.62,1.07384,0,0,1,0.647,size,0
s102,transfer,158,L25,learn,-1.07384,-0.62,0,0,1,0.663,size,0
s102,transfer,159,L24,learn,-0.62,1.07384,0,1,0,1.048,size,0
s102,transfer,160,L32,learn,0.10352,-0.38636,1,1,1,0.726,size,0
s102,transfer,161,L12,learn,0.452544,-0.452544,1,1,1,0.571,size,0
s102,transfer,162,L26,learn,-1.07384,0.62,0,0,1,0.581,size,0
s102,transfer,163,L28,learn,-0.64,0,1,1,1,0.783,size,0
s102,transfer,164,T3,transfer,-0.7667,-0.3067,,1,,0.629,size,0
s102,transfer,165,L21,learn,-1.301064,-1.301064,0,0,1,0.68,size,0
s102,transfer,166,L15,learn,-1.301064,1.301064,0,0,1,0.583,size,0
s102,transfer,167,L6,learn,0.62,-1.07384,0,0,1,1.346,size,0
s102,transfer,168,L8,learn,1.84,0,0,0,1,0.731,size,0
s102,transfer,169,L14,learn,0.38636,0.10352,1,1,1,0.83,size,0
s102,transfer,170,T3,transfer,-0.7667,-0.3067,,1,,0.862,size,0
s102,transfer,171,L31,learn,0.38636,-0.10352,1,1,1,0.753,size,0
s102,transfer,172,L22,learn,1.07384,-0.62,0,0,1,0.718,size,0
s102,transfer,173,L3,learn,0.62,1.07384,0,0,1,0.832,size,0
s102,transfer,174,L31,learn,0.38636,-0.10352,1,1,1,0.619,size,0
s102,transfer,175,L32,learn,0.10352,-0.38636,1,1,1,0.652,size,0
s102,transfer,176,T8,transfer,0.3067,0.7667,,1,,1.11,size,0
s102,transfer,177,L6,learn,0.62,-1.07384,0,0,1,0.681,size,0
s102,transfer,178,T2,transfer,0.3067,-0.7667,,0,,0.496,size,0
s102,transfer,179,L29,learn,-1.84,0,0,0,1,0.683,size,0
s102,transfer,180,L27,learn,1.301064,-1.301064,0,0,1,0.595,size,0
s102,transfer,181,L3,learn,0.62,1.07384,0,0,1,0.672,size,0
s102,transfer,182,L29,learn,-1.84,0,0,0,1,0.704,size,0
s102,transfer,183,L12,learn,0.452544,-0.452544,1,0,0,0.846,size,0
s102,transfer,184,L30,learn,0,-1.84,0,0,1,0.708,size,0
s102,transfer,185,L10,learn,0,1.84,0,0,1,0.582,size,0
s102,transfer,186,L22,learn,1.07384,-0.62,0,0,1,0.731,size,0
s102,transfer,187,L25,learn,-1.07384,-0.62,0,0,1,0.681,size,0
s102,transfer,188,L9,learn,0,-0.64,1,0,0,0.98,size,0
s102,transfer,189,T7,transfer,-0.3067,0.7667,,0,,0.771,size,0
s102,transfer,190,T8,transfer,0.3067,0.7667,,1,,1.077,size,0
s102,transfer,191,T6,transfer,0.7667,0.3067,,1,,0.633,size,0
s102,transfer,192,L19,learn,-0.10352,-0.38636,1,1,1,0.775,size,0
s102,transfer,193,L26,learn,-1.07384,0.62,0,0,1,0.696,size,0
s102,transfer,194,L10,learn,0,1.84,0,0,1,0.661,size,0
s102,transfer,195,L8,learn,1.84,0,0,0,1,0.742,size,0
s102,transfer,196,T7,transfer,-0.3067,0.7667,,1,,1.006,size,0
s102,transfer,197,L13,learn,-0.62,-1.07384,0,0,1,0.647,size,0
s102,transfer,198,L20,learn,0.10352,0.38636,1,1,1,0.767,size,0
s102,transfer,199,L27,learn,1.301064,-1.301064,0,0,1,0.687,size,0
s102,transfer,200,L1,learn,-0.38636,-0.10352,1,1,1,0.719,size,0
s102,transfer,201,L23,learn,1.301064,1.301064,0,0,1,0.691,size,0
s102,transfer,202,L7,learn,-0.10352,0.38636,1,1,1,0.691,size,0
s102,transfer,203,T2,transfer,0.3067,-0.7667,,1,,0.765,size,0
s102,transfer,204,L16,learn,0,0.64,1,1,1,0.745,size,0
s102,transfer,205,T7,transfer,-0.3067,0.7667,,1,,0.567,size,0
s102,transfer,206,L4,learn,-0.452544,0.452544,1,1,1,0.743,size,0
s102,transfer,207,T6,transfer,0.7667,0.3067,,1,,0.856,size,0
s102,transfer,208,L11,learn,0.64,0,1,1,1,0.682,size,0
s102,transfer,209,T4,transfer,0.7667,-0.3067,,1,,0.689,size,0
s102,transfer,210,L18,learn,-0.38636,0.10352,1,1,1,0.815,size,0
s102,transfer,211,L17,learn,-0.452544,-0.452544,1,1,1,0.518,size,0
s102,transfer,212,L28,learn,-0.64,0,1,1,1,0.549,size,0
s102,transfer,213,L7,learn,-0.10352,0.38636,1,1,1,0.568,size,0
s102,transfer,214,T1,transfer,-0.3067,-0.7667,,0,,0.826,size,0
s102,transfer,215,L19,learn,-0.10352,-0.38636,1,1,1,0.613,size,0
s102,transfer,216,L15,learn,-1.301064,1.301064,0,0,1,0.629,size,0
s102,transfer,217,L2,learn,0.452544,0.452544,1,0,0,0.865,size,0
s102,transfer,218,T4,transfer,0.7667,-0.3067,,1,,0.662,size,0
s102,transfer,219,L2,learn,0.452544,0.452544,1,1,1,0.651,size,0
s102,transfer,220,T5,transfer,-0.7667,0.3067,,1,,0.589,size,0
s102,transfer,221,T2,transfer,0.3067,-0.7667,,0,,1.047,size,0
s102,transfer,222,L9,learn,0,-0.64,1,0,0,0.78,size,0
s102,transfer,223,L18,learn,-0.38636,0.10352,1,1,1,0.579,size,0
s102,transfer,224,L20,learn,0.10352,0.38636,1,1,1,0.665,size,0
s102,transfer,225,T8,transfer,0.3067,0.7667,,1,,0.701,size,0
s102,transfer,226,L5,learn,1.07384,0.62,0,0,1,0.627,size,0
s102,transfer,227,L23,learn,1.301064,1.301064,0,0,1,0.561,size,0
s102,transfer,228,L11,learn,0.64,0,1,1,1,0.782,size,0
s102,transfer,229,T1,transfer,-0.3067,-0.7667,,0,,1.113,size,0
s102,transfer,230,T5,transfer,-0.7667,0.3067,,1,,0.743,size,0
s102,transfer,231,L30,learn,0,-1.84,0,0,1,0.754,size,0
s102,transfer,232,T4,transfer,0.7667,-0.3067,,1,,0.882,size,0
s102,transfer,233,L16,learn,0,0.64,1,1,1,0.749,size,0
s102,transfer,234,T6,transfer,0.7667,0.3067,,1,,0.563,size,0
s102,transfer,235,L5,learn,1.07384,0.62,0,0,1,0.647,size,0
s102,transfer,236,T5,transfer,-0.7667,0.3067,,1,,0.682,size,0
s102,transfer,237,L4,learn,-0.452544,0.452544,1,1,1,0.614,size,0
s102,transfer,238,L21,learn,-1.301064,-1.301064,0,0,1,0.59,size,0
s102,filler,239,F11,close,0,1.0733,,1,,0.729,size,0
s102,filler,240,F2,close,0,-1.0733,,0,,0.557,size,0
s102,filler,241,F6,close,-1.0733,0,,1,,0.926,size,0
s102,filler,242,F4,corner,0.7667,-0.7667,,0,,0.939,size,0
s102,filler,243,F12,far,0,1.5333,,0,,0.804,size,0
s102,filler,244,F7,close,1.0733,0,,1,,0.841,size,0
s102,filler,245,F10,corner,0.7667,0.7667,,1,,0.929,size,0
s102,filler,246,F8,far,1.5333,0,,0,,0.74,size,0
s102,filler,247,F5,far,-1.5333,0,,0,,0.696,size,0
s102,filler,248,F9,corner,-0.7667,0.7667,,0,,0.773,size,0
s102,filler,249,F1,far,0,-1.5333,,0,,0.596,size,0
s102,filler,250,F3,corner,-0.7667,-0.7667,,0,,0.857,size,0
s103,learn,1,L17,learn,-0.452544,-0.452544,1,0,0,0.66093,angle,0
s103,learn,2,L18,learn,-0.38636,0.10352,1,0,0,0.64089,angle,0
s103,learn,3,L12,learn,0.452544,-0.452544,1,0,0,0.807375,angle,0
s103,learn,4,L30,learn,0,-1.84,0,0,1,0.670125,angle,0
s103,learn,5,L31,learn,0.38636,-0.10352,1,0,0,0.861405,angle,0
s103,learn,6,L9,learn,0,-0.64,1,1,1,0.549465,angle,0
s103,learn,7,L32,learn,0.10352,-0.38636,1,1,1,0.511385,angle,0
s103,learn,8,L23,learn,1.301064,1.301064,0,0,1,0.88245,angle,0
s103,learn,9,L21,learn,-1.301064,-1.301064,0,1,0,0.820925,angle,0
s103,learn,10,L28,learn,-0.64,0,1,1,1,1.138255,angle,0
s103,learn,11,L10,learn,0,1.84,0,1,0,0.623395,angle,0
s103,learn,12,L14,learn,0.38636,0.10352,1,1,1,0.84452,angle,0
s103,learn,13,L11,learn,0.64,0,1,1,1,0.66056,angle,0
s103,learn,14,L2,learn,0.452544,0.452544,1,1,1,0.629535,angle,0
s103,learn,15,L8,learn,1.84,0,0,1,0,1.04741,angle,0
s103,learn,16,L13,learn,-0.62,-1.07384,0,0,1,0.73845,angle,0
s103,learn,17,L7,learn,-0.10352,0.38636,1,1,1,0.96333,angle,0
s103,learn,18,L16,learn,0,0.64,1,1,1,0.49313,angle,0
s103,learn,19,L22,learn,1.07384,-0.62,0,0,1,0.78569,angle,0
s103,learn,20,L24,learn,-0.62,1.07384,0,1,0,0.778925,angle,0
s103,learn,21,L26,learn,-1.07384,0.62,0,1,0,1.81389,angle,0
s103,learn,22,L19,learn,-0.10352,-0.38636,1,0,0,0.88119,angle,0
s103,learn,23,L15,learn,-1.301064,1.301064,0,0,1,1.271335,angle,0
s103,learn,24,L6,learn,0.62,-1.07384,0,0,1,0.63125,angle,0
s103,learn,25,L27,learn,1.301064,-1.301064,0,0,1,0.954705,angle,0
s103,learn,26,L25,learn,-1.07384,-0.62,0,0,1,0.60943,angle,0
s103,learn,27,L4,learn,-0.452544,0.452544,1,1,1,0.74122,angle,0
s103,learn,28,L20,learn,0.10352,0.38636,1,1,1,0.59064,angle,0
s103,learn,29,L3,learn,0.62,1.07384,0,1,0,0.902215,angle,0
s103,learn,30,L1,learn,-0.38636,-0.10352,1,1,1,0.687915,angle,0
s103,learn,31,L29,learn,-1.84,0,0,1,0,0.67146,angle,0
s103,learn,32,L5,learn,1.07384,0.62,0,1,0,1.01461,angle,0
s103,learn,33,L11,learn,0.64,0,1,1,1,0.865485,angle,0
s103,learn,34,L13,learn,-0.62,-1.07384,0,0,1,0.760895,angle,0
s103,learn,35,L19,learn,-0.10352,-0.38636,1,0,0,0.755645,angle,0
s103,learn,36,L21,learn,-1.301064,-1.301064,0,0,1,0.65253,angle,0
s103,learn,37,L5,learn,1.07384,0.62,0,1,0,1.10952,angle,0
s103,learn,38,L24,learn,-0.62,1.07384,0,1,0,0.76679,angle,0
s103,learn,39,L18,learn,-0.38636,0.10352,1,1,1,0.93697,angle,0
s103,learn,40,L6,learn,0.62,-1.07384,0,0,1,0.97022,angle,0
s103,learn,41,L4,learn,-0.452544,0.452544,1,1,1,0.815025,angle,0
s103,learn,42,L32,learn,0.10352,-0.38636,1,1,1,0.76547,angle,0
s103,learn,43,L7,learn,-0.10352,0.38636,1,1,1,0.625975,angle,0
s103,learn,44,L25,learn,-1.07384,-0.62,0,0,1,0.887455,angle,0
s103,learn,45,L14,learn,0.38636,0.10352,1,1,1,0.760595,angle,0
s103,learn,46,L15,learn,-1.301064,1.301064,0,0,1,0.847285,angle,0
s103,learn,47,L9,learn,0,-0.64,1,0,0,0.753485,angle,0
s103,learn,48,L12,learn,0.452544,-0.452544,1,1,1,1.249655,angle,0
s103,learn,49,L23,learn,1.301064,1.301064,0,0,1,0.994405,angle,0
s103,learn,50,L8,learn,1.84,0,0,0,1,1.076745,angle,0
s103,learn,51,L20,learn,0.10352,0.38636,1,1,1,0.90303,angle,0
s103,learn,52,L30,learn,0,-1.84,0,0,1,0.753405,angle,0
s103,learn,53,L2,learn,0.452544,0.452544,1,1,1,0.8224,angle,0
s103,learn,54,L16,learn,0,0.64,1,1,1,0.600445,angle,0
s103,learn,55,L17,learn,-0.452544,-0.452544,1,1,1,0.6673,angle,0
s103,learn,56,L3,learn,0.62,1.07384,0,1,0,0.74759,angle,0
s103,learn,57,L26,learn,-1.07384,0.62,0,0,1,0.69055,angle,0
s103,learn,58,L22,learn,1.07384,-0.62,0,0,1,0.868785,angle,0
s103,learn,59,L31,learn,0.38636,-0.10352,1,1,1,0.73404,angle,0
s103,learn,60,L27,learn,1.301064,-1.301064,0,0,1,0.76114,angle,0
s103,learn,61,L28,learn,-0.64,0,1,0,0,0.98109,angle,0
s103,learn,62,L1,learn,-0.38636,-0.10352,1,1,1,0.677445,angle,0
s103,learn,63,L10,learn,0,1.84,0,0,1,0.911835,angle,0
s103,learn,64,L29,learn,-1.84,0,0,0,1,1.094125,angle,0
s103,learn,65,L5,learn,1.07384,0.62,0,0,1,1.110675,angle,0
s103,learn,66,L8,learn,1.84,0,0,0,1,0.66215,angle,0
s103,learn,67,L1,learn,-0.38636,-0.10352,1,1,1,1.056445,angle,0
s103,learn,68,L13,learn,-0.62,-1.07384,0,0,1,0.978365,angle,0
s103,learn,69,L30,learn,0,-1.84,0,0,1,0.61127,angle,0
s103,learn,70,L22,learn,1.07384,-0.62,0,0,1,1.246515,angle,0
s103,learn,71,L3,learn,0.62,1.07384,0,0,1,1.15687,angle,0
s103,learn,72,L20,learn,0.10352,0.38636,1,1,1,0.771635,angle,0
s103,learn,73,L16,learn,0,0.64,1,1,1,0.557255,angle,0
s103,learn,74,L10,learn,0,1.84,0,0,1,0.787675,angle,0
s103,learn,75,L11,learn,0.64,0,1,0,0,1.07202,angle,0
s103,learn,76,L27,learn,1.301064,-1.301064,0,0,1,0.726005,angle,0
s103,learn,77,L17,learn,-0.452544,-0.452544,1,1,1,1.12067,angle,0
s103,learn,78,L26,learn,-1.07384,0.62,0,1,0,0.89968,angle,0
s103,learn,79,L2,learn,0.452544,0.452544,1,1,1,0.783445,angle,0
s103,learn,80,L28,learn,-0.64,0,1,1,1,0.870235,angle,0
s103,learn,81,L4,learn,-0.452544,0.452544,1,1,1,0.73685,angle,0
s103,learn,82,L32,learn,0.10352,-0.38636,1,1,1,0.755035,angle,0
s103,learn,83,L12,learn,0.452544,-0.452544,1,0,0,1.23902,angle,0
s103,learn,84,L9,learn,0,-0.64,1,1,1,0.67134,angle,0
s103,learn,85,L31,learn,0.38636,-0.10352,1,1,1,0.654185,angle,0
s103,learn,86,L6,learn,0.62,-1.07384,0,0,1,0.707825,angle,0
s103,learn,87,L21,learn,-1.301064,-1.301064,0,0,1,0.6468,angle,0
s103,learn,88,L24,learn,-0.62,1.07384,0,0,1,1.490515,angle,0
s103,learn,89,L23,learn,1.301064,1.301064,0,0,1,0.81989,angle,0
s103,learn,90,L15,learn,-1.301064,1.301064,0,0,1,0.66658,angle,0
s103,learn,91,L14,learn,0.38636,0.10352,1,1,1,0.67773,angle,0
s103,learn,92,L25,learn,-1.07384,-0.62,0,0,1,0.84673,angle,0
s103,learn,93,L18,learn,-0.38636,0.10352,1,1,1,0.815965,angle,0
s103,learn,94,L29,learn,-1.84,0,0,0,1,0.818455,angle,0
s103,learn,95,L7,learn,-0.10352,0.38636,1,1,1,0.80448,angle,0
s103,learn,96,L19,learn,-0.10352,-0.38636,1,1,1,0.78688,angle,0
s103,learn,97,L14,learn,0.38636,0.10352,1,1,1,0.702195,angle,0
s103,learn,98,L6,learn,0.62,-1.07384,0,0,1,0.770465,angle,0
s103,learn,99,L2,learn,0.452544,0.452544,1,1,1,0.979725,angle,0
s103,learn,100,L17,learn,-0.452544,-0.452544,1,1,1,0.647195,angle,0
s103,learn,101,L20,learn,0.10352,0.38636,1,1,1,0.78782,angle,0
s103,learn,102,L19,learn,-0.10352,-0.38636,1,1,1,0.45489,angle,0
s103,learn,103,L26,learn,-1.07384,0.62,0,0,1,0.63502,angle,0
s103,learn,104,L9,learn,0,-0.64,1,0,0,0.952925,angle,0
s103,learn,105,L10,learn,0,1.84,0,0,1,0.738405,angle,0
s103,learn,106,L4,learn,-0.452544,0.452544,1,1,1,0.931095,angle,0
s103,learn,107,L24,learn,-0.62,1.07384,0,1,0,0.586005,angle,0
s103,learn,108,L30,learn,0,-1.84,0,0,1,0.90892,angle,0
s103,learn,109,L8,learn,1.84,0,0,0,1,0.67971,angle,0
s103,learn,110,L16,learn,0,0.64,1,1,1,0.67159,angle,0
s103,learn,111,L28,learn,-0.64,0,1,1,1,0.589635,angle,0
s103,learn,112,L23,learn,1.301064,1.301064,0,0,1,0.890045,angle,0
s103,learn,113,L29,learn,-1.84,0,0,0,1,0.97907,angle,0
s103,learn,114,L25,learn,-1.07384,-0.62,0,0,1,0.694025,angle,0
s103,learn,115,L13,learn,-0.62,-1.07384,0,0,1,0.98447,angle,0
s103,learn,116,L5,learn,1.07384,0.62,0,1,0,0.74805,angle,0
s103,learn,117,L7,learn,-0.10352,0.38636,1,1,1,0.559085,angle,0
s103,learn,118,L15,learn,-1.301064,1.301064,0,0,1,0.775495,angle,0
s103,learn,119,L18,learn,-0.38636,0.10352,1,1,1,0.804055,angle,0
s103,learn,120,L31,learn,0.38636,-0.10352,1,1,1,0.539605,angle,0
s103,learn,121,L27,learn,1.301064,-1.301064,0,0,1,0.604245,angle,0
s103,learn,122,L21,learn,-1.301064,-1.301064,0,0,1,0.5825,angle,0
s103,learn,123,L32,learn,0.10352,-0.38636,1,1,1,0.653455,angle,0
s103,learn,124,L11,learn,0.64,0,1,1,1,0.83867,angle,0
s103,learn,125,L1,learn,-0.38636,-0.10352,1,1,1,0.536405,angle,0
s103,learn,126,L3,learn,0.62,1.07384,0,0,1,0.77823,angle,0
s103,learn,127,L12,learn,0.452544,-0.452544,1,0,0,0.836155,angle,0
s103,learn,128,L22,learn,1.07384,-0.62,0,0,1,1.1361,angle,0
s103,learn,129,L11,learn,0.64,0,1,0,0,0.924205,angle,0
s103,learn,130,L17,learn,-0.452544,-0.452544,1,1,1,0.826665,angle,0
s103,learn,131,L18,learn,-0.38636,0.10352,1,1,1,0.65853,angle,0
s103,learn,132,L1,learn,-0.38636,-0.10352,1,1,1,0.58429,angle,0
s103,learn,133,L28,learn,-0.64,0,1,1,1,0.520405,angle,0
s103,learn,134,L27,learn,1.301064,-1.301064,0,0,1,0.75216,angle,0
s103,learn,135,L26,learn,-1.07384,0.62,0,1,0,0.6184,angle,0
s103,learn,136,L30,learn,0,-1.84,0,0,1,0.802235,angle,0
s103,learn,137,L15,learn,-1.301064,1.301064,0,0,1,0.734405,angle,0
s103,learn,138,L3,learn,0.62,1.07384,0,1,0,0.719115,angle,0
s103,learn,139,L24,learn,-0.62,1.07384,0,0,1,0.72844,angle,0
s103,learn,140,L29,learn,-1.84,0,0,0,1,0.66218,angle,0
s103,learn,141,L13,learn,-0.62,-1.07384,0,0,1,0.943095,angle,0
s103,learn,142,L12,learn,0.452544,-0.452544,1,0,0,1.15381,angle,0
s103,learn,143,L31,learn,0.38636,-0.10352,1,1,1,0.69935,angle,0
s103,learn,144,L4,learn,-0.452544,0.452544,1,1,1,0.642805,angle,0
s103,learn,145,L32,learn,0.10352,-0.38636,1,1,1,0.69383,angle,0
s103,learn,146,L25,learn,-1.07384,-0.62,0,1,0,0.69734,angle,0
s103,learn,147,L22,learn,1.07384,-0.62,0,0,1,0.58672,angle,0
s103,learn,148,L6,learn,0.62,-1.07384,0,0,1,0.694275,angle,0
s103,learn,149,L20,learn,0.10352,0.38636,1,1,1,0.76664,angle,0
s103,learn,150,L16,learn,0,0.64,1,1,1,0.51932,angle,0
s103,learn,151,L23,learn,1.301064,1.301064,0,0,1,0.929445,angle,0
s103,learn,152,L19,learn,-0.10352,-0.38636,1,1,1,0.91382,angle,0
s103,learn,153,L5,learn,1.07384,0.62,0,0,1,0.82754,angle,0
s103,learn,154,L21,learn,-1.301064,-1.301064,0,0,1,0.722915,angle,0
s103,learn,155,L7,learn,-0.10352,0.38636,1,1,1,0.45557,angle,0
s103,learn,156,L2,learn,0.452544,0.452544,1,1,1,0.512105,angle,0
s103,learn,157,L10,learn,0,1.84,0,1,0,0.57755,angle,0
s103,learn,158,L9,learn,0,-0.64,1,1,1,0.73948,angle,0
s103,learn,159,L14,learn,0.38636,0.10352,1,1,1,0.58851,angle,0
s103,learn,160,L8,learn,1.84,0,0,0,1,0.776665,angle,0
s103,learn,161,L4,learn,-0.452544,0.452544,1,1,1,0.888305,angle,0
s103,learn,162,L16,learn,0,0.64,1,1,1,0.658395,angle,0
s103,learn,163,L19,learn,-0.10352,-0.38636,1,1,1,0.553275,angle,0
s103,learn,164,L6,learn,0.62,-1.07384,0,0,1,0.852035,angle,0
s103,learn,165,L2,learn,0.452544,0.452544,1,1,1,0.722375,angle,0
s103,learn,166,L29,learn,-1.84,0,0,0,1,0.747655,angle,0
s103,learn,167,L31,learn,0.38636,-0.10352,1,1,1,0.627345,angle,0
s103,learn,168,L22,learn,1.07384,-0.62,0,0,1,0.63502,angle,0
s103,learn,169,L13,learn,-0.62,-1.07384,0,0,1,0.654915,angle,0
s103,learn,170,L28,learn,-0.64,0,1,1,1,0.70971,angle,0
s103,learn,171,L32,learn,0.10352,-0.38636,1,1,1,0.77134,angle,0
s103,learn,172,L7,learn,-0.10352,0.38636,1,1,1,0.625545,angle,0
s103,learn,173,L26,learn,-1.07384,0.62,0,0,1,1.21935,angle,0
s103,learn,174,L5,learn,1.07384,0.62,0,0,1,0.68744,angle,0
s103,learn,175,L9,learn,0,-0.64,1,1,1,1.02811,angle,0
s103,learn,176,L15,learn,-1.301064,1.301064,0,0,1,0.94577,angle,0
s103,learn,177,L11,learn,0.64,0,1,1,1,0.821225,angle,0
s103,learn,178,L20,learn,0.10352,0.38636,1,1,1,0.62472,angle,0
s103,learn,179,L23,learn,1.301064,1.301064,0,0,1,1.46338,angle,0
s103,learn,180,L24,learn,-0.62,1.07384,0,1,0,0.787375,angle,0
s103,learn,181,L21,learn,-1.301064,-1.301064,0,0,1,0.677995,angle,0
s103,learn,182,L1,learn,-0.38636,-0.10352,1,1,1,0.66933,angle,0
s103,learn,183,L3,learn,0.62,1.07384,0,1,0,0.70251,angle,0
s103,learn,184,L8,learn,1.84,0,0,0,1,0.95822,angle,0
s103,learn,185,L18,learn,-0.38636,0.10352,1,1,1,0.64174,angle,0
s103,learn,186,L14,learn,0.38636,0.10352,1,1,1,0.638835,angle,0
s103,learn,187,L30,learn,0,-1.84,0,0,1,0.702765,angle,0
s103,learn,188,L17,learn,-0.452544,-0.452544,1,1,1,0.617485,angle,0
s103,learn,189,L27,learn,1.301064,-1.301064,0,0,1,0.580295,angle,0
s103,learn,190,L10,learn,0,1.84,0,0,1,0.860815,angle,0
s103,learn,191,L12,learn,0.452544,-0.452544,1,1,1,0.63969,angle,0
s103,learn,192,L25,learn,-1.07384,-0.62,0,1,0,0.6637,angle,0
s103,learn,193,L5,learn,1.07384,0.62,0,1,0,0.67068,angle,0
s103,learn,194,L24,learn,-0.62,1.07384,0,1,0,0.71731,angle,0
s103,learn,195,L23,learn,1.301064,1.301064,0,0,1,0.758465,angle,0
s103,learn,196,L16,learn,0,0.64,1,1,1,0.594575,angle,0
s103,learn,197,L13,learn,-0.62,-1.07384,0,0,1,1.033825,angle,0
s103,learn,198,L28,learn,-0.64,0,1,1,1,0.78038,angle,0
s103,learn,199,L4,learn,-0.452544,0.452544,1,1,1,0.64492,angle,0
s103,learn,200,L14,learn,0.38636,0.10352,1,1,1,0.590095,angle,0
s103,learn,201,L27,learn,1.301064,-1.301064,0,0,1,1.037665,angle,0
s103,learn,202,L17,learn,-0.452544,-0.452544,1,1,1,0.697175,angle,0
s103,learn,203,L22,learn,1.07384,-0.62,0,0,1,0.69594,angle,0
s103,learn,204,L8,learn,1.84,0,0,0,1,0.723735,angle,0
s103,learn,205,L12,learn,0.452544,-0.452544,1,0,0,1.076555,angle,0
s103,learn,206,L11,learn,0.64,0,1,0,0,1.137725,angle,0
s103,learn,207,L21,learn,-1.301064,-1.301064,0,0,1,0.702555,angle,0
s103,learn,208,L10,learn,0,1.84,0,0,1,0.73921,angle,0
s103,learn,209,L29,learn,-1.84,0,0,0,1,0.9546,angle,0
s103,learn,210,L3,learn,0.62,1.07384,0,0,1,1.089615,angle,0
s103,learn,211,L20,learn,0.10352,0.38636,1,1,1,0.6953,angle,0
s103,learn,212,L6,learn,0.62,-1.07384,0,0,1,0.845665,angle,0
s103,learn,213,L31,learn,0.38636,-0.10352,1,1,1,0.94735,angle,0
s103,learn,214,L19,learn,-0.10352,-0.38636,1,1,1,0.789065,angle,0
s103,learn,215,L9,learn,0,-0.64,1,1,1,0.72178,angle,0
s103,learn,216,L2,learn,0.452544,0.452544,1,1,1,1.251815,angle,0
s103,learn,217,L15,learn,-1.301064,1.301064,0,0,1,0.887755,angle,0
s103,learn,218,L18,learn,-0.38636,0.10352,1,1,1,0.693145,angle,0
s103,learn,219,L7,learn,-0.10352,0.38636,1,1,1,0.691285,angle,0
s103,learn,220,L32,learn,0.10352,-0.38636,1,1,1,0.74728,angle,0
s103,learn,221,L30,learn,0,-1.84,0,0,1,0.68294,angle,0
s103,learn,222,L1,learn,-0.38636,-0.10352,1,1,1,0.75234,angle,0
s103,learn,223,L25,learn,-1.07384,-0.62,0,0,1,1.01076,angle,0
s103,learn,224,L26,learn,-1.07384,0.62,0,1,0,0.94881,angle,0
s103,learn,225,L29,learn,-1.84,0,0,0,1,0.539,angle,0
s103,learn,226,L28,learn,-0.64,0,1,1,1,0.89801,angle,0
s103,learn,227,L19,learn,-0.10352,-0.38636,1,1,1,0.806495,angle,0
s103,learn,228,L11,learn,0.64,0,1,1,1,1.06159,angle,0
s103,learn,229,L26,learn,-1.07384,0.62,0,1,0,0.97889,angle,0
s103,learn,230,L25,learn,-1.07384,-0.62,0,0,1,0.94323,angle,0
s103,learn,231,L21,learn,-1.301064,-1.301064,0,0,1,0.667885,angle,0
s103,learn,232,L3,learn,0.62,1.07384,0,0,1,0.906825,angle,0
s103,learn,233,L32,learn,0.10352,-0.38636,1,1,1,1.27904,angle,0
s103,learn,234,L16,learn,0,0.64,1,1,1,0.734705,angle,0
s103,learn,235,L7,learn,-0.10352,0.38636,1,1,1,0.56713,angle,0
s103,learn,236,L14,learn,0.38636,0.10352,1,1,1,0.582275,angle,0
s103,learn,237,L9,learn,0,-0.64,1,1,1,1.15153,angle,0
s103,learn,238,L23,learn,1.301064,1.301064,0,0,1,0.833095,angle,0
s103,learn,239,L15,learn,-1.301064,1.301064,0,0,1,0.603065,angle,0
s103,learn,240,L5,learn,1.07384,0.62,0,0,1,0.94315,angle,0
s103,learn,241,L24,learn,-0.62,1.07384,0,1,0,1.00623,angle,0
s103,learn,242,L27,learn,1.301064,-1.301064,0,0,1,1.273215,angle,0
s103,learn,243,L12,learn,0.452544,-0.452544,1,0,0,0.806095,angle,0
s103,learn,244,L13,learn,-0.62,-1.07384,0,0,1,1.443015,angle,0
s103,learn,245,L30,learn,0,-1.84,0,0,1,0.678605,angle,0
s103,learn,246,L2,learn,0.452544,0.452544,1,1,1,1.038395,angle,0
s103,learn,247,L20,learn,0.10352,0.38636,1,1,1,0.519125,angle,0
s103,learn,248,L18,learn,-0.38636,0.10352,1,1,1,0.49497,angle,0
s103,learn,249,L22,learn,1.07384,-0.62,0,1,0,0.627345,angle,0
s103,learn,250,L1,learn,-0.38636,-0.10352,1,1,1,0.70839,angle,0
s103,learn,251,L6,learn,0.62,-1.07384,0,0,1,1.055905,angle,0
s103,learn,252,L10,learn,0,1.84,0,0,1,0.796515,angle,0
s103,learn,253,L17,learn,-0.452544,-0.452544,1,1,1,1.008555,angle,0
s103,learn,254,L4,learn,-0.452544,0.452544,1,1,1,0.670105,angle,0
s103,learn,255,L31,learn,0.38636,-0.10352,1,1,1,0.69103,angle,0
s103,learn,256,L8,learn,1.84,0,0,0,1,0.60751,angle,0
s103,learn,257,L7,learn,-0.10352,0.38636,1,1,1,0.74226,angle,0
s103,learn,258,L6,learn,0.62,-1.07384,0,0,1,0.8697,angle,0
s103,learn,259,L11,learn,0.64,0,1,0,0,0.693215,angle,0
s103,learn,260,L16,learn,0,0.64,1,1,1,0.93513,angle,0
s103,learn,261,L20,learn,0.10352,0.38636,1,1,1,0.95559,angle,0
s103,learn,262,L4,learn,-0.452544,0.452544,1,1,1,0.725975,angle,0
s103,learn,263,L32,learn,0.10352,-0.38636,1,1,1,0.93825,angle,0
s103,learn,264,L24,learn,-0.62,1.07384,0,0,1,1.259055,angle,0
s103,learn,265,L31,learn,0.38636,-0.10352,1,1,1,0.757195,angle,0
s103,learn,266,L21,learn,-1.301064,-1.301064,0,0,1,0.902955,angle,0
s103,learn,267,L3,learn,0.62,1.07384,0,1,0,1.97185,angle,0
s103,learn,268,L10,learn,0,1.84,0,0,1,0.771265,angle,0
s103,learn,269,L18,learn,-0.38636,0.10352,1,1,1,0.690995,angle,0
s103,learn,270,L15,learn,-1.301064,1.301064,0,0,1,0.794295,angle,0
s103,learn,271,L5,learn,1.07384,0.62,0,0,1,0.66129,angle,0
s103,learn,272,L14,learn,0.38636,0.10352,1,1,1,0.900405,angle,0
s103,learn,273,L12,learn,0.452544,-0.452544,1,1,1,0.83755,angle,0
s103,learn,274,L23,learn,1.301064,1.301064,0,0,1,0.737355,angle,0
s103,learn,275,L8,learn,1.84,0,0,1,0,0.770335,angle,0
s103,learn,276,L2,learn,0.452544,0.452544,1,1,1,0.97249,angle,0
s103,learn,277,L1,learn,-0.38636,-0.10352,1,1,1,0.73738,angle,0
s103,learn,278,L29,learn,-1.84,0,0,0,1,1.03893,angle,0
s103,learn,279,L17,learn,-0.452544,-0.452544,1,0,0,1.407885,angle,0
s103,learn,280,L22,learn,1.07384,-0.62,0,0,1,1.0841,angle,0
s103,learn,281,L9,learn,0,-0.64,1,1,1,1.51771,angle,0
s103,learn,282,L27,learn,1.301064,-1.301064,0,0,1,0.81319,angle,0
s103,learn,283,L30,learn,0,-1.84,0,0,1,0.623575,angle,0
s103,learn,284,L13,learn,-0.62,-1.07384,0,0,1,0.85442,angle,0
s103,learn,285,L19,learn,-0.10352,-0.38636,1,1,1,1.11617,angle,0
s103,learn,286,L26,learn,-1.07384,0.62,0,0,1,1.124435,angle,0
s103,learn,287,L28,learn,-0.64,0,1,1,1,0.994685,angle,0
s103,learn,288,L25,learn,-1.07384,-0.62,0,0,1,1.52638,angle,0
s103,learn,289,L17,learn,-0.452544,-0.452544,1,1,1,1.30416,angle,0
s103,learn,290,L18,learn,-0.38636,0.10352,1,1,1,0.805855,angle,0
s103,learn,291,L20,learn,0.10352,0.38636,1,1,1,0.73757,angle,0
s103,learn,292,L6,learn,0.62,-1.07384,0,0,1,0.840135,angle,0
s103,learn,293,L21,learn,-1.301064,-1.301064,0,0,1,0.759915,angle,0
s103,learn,294,L25,learn,-1.07384,-0.62,0,0,1,1.27856,angle,0
s103,learn,295,L13,learn,-0.62,-1.07384,0,0,1,1.19068,angle,0
s103,learn,296,L23,learn,1.301064,1.301064,0,0,1,0.904145,angle,0
s103,learn,297,L24,learn,-0.62,1.07384,0,1,0,1.35407,angle,0
s103,learn,298,L31,learn,0.38636,-0.10352,1,1,1,0.99304,angle,0
s103,learn,299,L28,learn,-0.64,0,1,1,1,0.723655,angle,0
s103,learn,300,L15,learn,-1.301064,1.301064,0,0,1,0.682595,angle,0
s103,learn,301,L22,learn,1.07384,-0.62,0,1,0,0.90144,angle,0
s103,learn,302,L14,learn,0.38636,0.10352,1,1,1,0.65069,angle,0
s103,learn,303,L1,learn,-0.38636,-0.10352,1,1,1,0.518415,angle,0
s103,learn,304,L9,learn,0,-0.64,1,1,1,0.991085,angle,0
s103,learn,305,L4,learn,-0.452544,0.452544,1,1,1,0.60927,angle,0
s103,learn,306,L16,learn,0,0.64,1,1,1,0.751455,angle,0
s103,learn,307,L5,learn,1.07384,0.62,0,0,1,0.743405,angle,0
s103,learn,308,L27,learn,1.301064,-1.301064,0,0,1,0.736535,angle,0
s103,learn,309,L7,learn,-0.10352,0.38636,1,1,1,0.59297,angle,0
s103,learn,310,L30,learn,0,-1.84,0,0,1,0.660155,angle,0
s103,learn,311,L3,learn,0.62,1.07384,0,1,0,1.00952,angle,0
s103,learn,312,L19,learn,-0.10352,-0.38636,1,1,1,4.131045,angle,0
s103,learn,313,L32,learn,0.10352,-0.38636,1,1,1,0.73311,angle,0
s103,learn,314,L8,learn,1.84,0,0,0,1,1.227275,angle,0
s103,learn,315,L29,learn,-1.84,0,0,0,1,0.84448,angle,0
s103,learn,316,L2,learn,0.452544,0.452544,1,1,1,1.44706,angle,0
s103,learn,317,L11,learn,0.64,0,1,1,1,1.02869,angle,0
s103,learn,318,L26,learn,-1.07384,0.62,0,0,1,1.122215,angle,0
s103,learn,319,L10,learn,0,1.84,0,0,1,0.90154,angle,0
s103,learn,320,L12,learn,0.452544,-0.452544,1,1,1,1.862985,angle,0
s103,learn,321,L12,learn,0.452544,-0.452544,1,0,0,1.144715,angle,0
s103,learn,322,L17,learn,-0.452544,-0.452544,1,1,1,1.90601,angle,0
s103,learn,323,L4,learn,-0.452544,0.452544,1,1,1,0.72168,angle,0
s103,learn,324,L15,learn,-1.301064,1.301064,0,0,1,0.852335,angle,0
s103,learn,325,L6,learn,0.62,-1.07384,0,0,1,1.37885,angle,0
s103,learn,326,L23,learn,1.301064,1.301064,0,0,1,0.899445,angle,0
s103,learn,327,L13,learn,-0.62,-1.07384,0,0,1,1.156655,angle,0
s103,learn,328,L1,learn,-0.38636,-0.10352,1,1,1,1.293985,angle,0
s103,learn,329,L25,learn,-1.07384,-0.62,0,0,1,0.790705,angle,0
s103,learn,330,L8,learn,1.84,0,0,0,1,0.825575,angle,0
s103,learn,331,L27,learn,1.301064,-1.301064,0,0,1,1.153855,angle,0
s103,learn,332,L24,learn,-0.62,1.07384,0,0,1,1.84488,angle,0
s103,learn,333,L20,learn,0.10352,0.38636,1,1,1,0.93724,angle,0
s103,learn,334,L9,learn,0,-0.64,1,1,1,1.86893,angle,0
s103,learn,335,L32,learn,0.10352,-0.38636,1,1,1,0.71711,angle,0
s103,learn,336,L19,learn,-0.10352,-0.38636,1,1,1,0.55419,angle,0
s103,learn,337,L31,learn,0.38636,-0.10352,1,1,1,0.742735,angle,0
s103,learn,338,L10,learn,0,1.84,0,0,1,0.66026,angle,0
s103,learn,339,L21,learn,-1.301064,-1.301064,0,0,1,0.85523,angle,0
s103,learn,340,L14,learn,0.38636,0.10352,1,1,1,0.86904,angle,0
s103,learn,341,L2,learn,0.452544,0.452544,1,1,1,1.23263,angle,0
s103,learn,342,L18,learn,-0.38636,0.10352,1,1,1,0.687575,angle,0
s103,learn,343,L5,learn,1.07384,0.62,0,0,1,0.953025,angle,0
s103,transfer,344,T1,transfer,-0.3067,-0.7667,,0,,1.30885,angle,0
s103,transfer,345,T4,transfer,0.7667,-0.3067,,0,,0.93896,angle,0
s103,transfer,346,L24,learn,-0.62,1.07384,0,0,1,0.974385,angle,0
s103,transfer,347,T2,transfer,0.3067,-0.7667,,1,,1.27059,angle,0
s103,transfer,348,T3,transfer,-0.7667,-0.3067,,0,,1.587565,angle,0
s103,transfer,349,T6,transfer,0.7667,0.3067,,0,,1.44465,angle,0
s103,transfer,350,L23,learn,1.301064,1.301064,0,0,1,0.582885,angle,0
s103,transfer,351,L23,learn,1.301064,1.301064,0,0,1,0.42035,angle,0
s103,transfer,352,L21,learn,-1.301064,-1.301064,0,0,1,0.525555,angle,0
s103,transfer,353,L14,learn,0.38636,0.10352,1,1,1,0.988545,angle,0
s103,transfer,354,L25,learn,-1.07384,-0.62,0,0,1,1.5931,angle,0
s103,transfer,355,L22,learn,1.07384,-0.62,0,0,1,0.467675,angle,0
s103,transfer,356,L3,learn,0.62,1.07384,0,0,1,0.781675,angle,0
s103,transfer,357,L18,learn,-0.38636,0.10352,1,1,1,0.956075,angle,0
s103,transfer,358,L24,learn,-0.62,1.07384,0,0,1,1.67654,angle,0
s103,transfer,359,T6,transfer,0.7667,0.3067,,1,,1.37556,angle,0
s103,transfer,360,L10,learn,0,1.84,0,1,0,0.571045,angle,0
s103,transfer,361,T8,transfer,0.3067,0.7667,,1,,0.6465,angle,0
s103,transfer,362,L4,learn,-0.452544,0.452544,1,1,1,0.53486,angle,0
s103,transfer,363,L20,learn,0.10352,0.38636,1,1,1,0.50935,angle,0
s103,transfer,364,L18,learn,-0.38636,0.10352,1,1,1,0.44289,angle,0
s103,transfer,365,L8,learn,1.84,0,0,0,1,0.93231,angle,0
s103,transfer,366,L9,learn,0,-0.64,1,1,1,1.129415,angle,0
s103,transfer,367,L11,learn,0.64,0,1,1,1,0.825735,angle,0
s103,transfer,368,L12,learn,0.452544,-0.452544,1,1,1,0.48478,angle,0
s103,transfer,369,T3,transfer,-0.7667,-0.3067,,1,,0.53814,angle,0
s103,transfer,370,T2,transfer,0.3067,-0.7667,,1,,0.6647,angle,0
s103,transfer,371,L28,learn,-0.64,0,1,1,1,0.548915,angle,0
s103,transfer,372,L26,learn,-1.07384,0.62,0,0,1,1.00166,angle,0
s103,transfer,373,T5,transfer,-0.7667,0.3067,,1,,1.280575,angle,0
s103,transfer,374,T3,transfer,-0.7667,-0.3067,,1,,0.634325,angle,0
s103,transfer,375,L17,learn,-0.452544,-0.452544,1,1,1,0.48627,angle,0
s103,transfer,376,L8,learn,1.84,0,0,0,1,0.848085,angle,0
s103,transfer,377,L4,learn,-0.452544,0.452544,1,1,1,1.053055,angle,0
s103,transfer,378,T1,transfer,-0.3067,-0.7667,,0,,0.766435,angle,0
s103,transfer,379,L31,learn,0.38636,-0.10352,1,1,1,1.108025,angle,0
s103,transfer,380,L16,learn,0,0.64,1,1,1,0.695345,angle,0
s103,transfer,381,L7,learn,-0.10352,0.38636,1,1,1,0.472675,angle,0
s103,transfer,382,L2,learn,0.452544,0.452544,1,1,1,0.48739,angle,0
s103,transfer,383,L14,learn,0.38636,0.10352,1,1,1,0.403105,angle,0
s103,transfer,384,L15,learn,-1.301064,1.301064,0,0,1,0.703345,angle,0
s103,transfer,385,L3,learn,0.62,1.07384,0,0,1,0.78816,angle,0
s103,transfer,386,L6,learn,0.62,-1.07384,0,0,1,1.00611,angle,0
s103,transfer,387,T7,transfer,-0.3067,0.7667,,1,,1.198615,angle,0
s103,transfer,388,T7,transfer,-0.3067,0.7667,,1,,0.735055,angle,0
s103,transfer,389,L16,learn,0,0.64,1,1,1,0.5103,angle,0
s103,transfer,390,L26,learn,-1.07384,0.62,0,0,1,1.20596,angle,0
s103,transfer,391,L19,learn,-0.10352,-0.38636,1,1,1,1.07946,angle,0
s103,transfer,392,T1,transfer,-0.3067,-0.7667,,1,,3.546845,angle,0
s103,transfer,393,L10,learn,0,1.84,0,0,1,0.66993,angle,0
s103,transfer,394,T8,transfer,0.3067,0.7667,,1,,1.067235,angle,0
s103,transfer,395,L29,learn,-1.84,0,0,0,1,0.64055,angle,0
s103,transfer,396,T6,transfer,0.7667,0.3067,,0,,2.127155,angle,0
s103,transfer,397,L6,learn,0.62,-1.07384,0,0,1,0.855175,angle,0
s103,transfer,398,L15,learn,-1.301064,1.301064,0,0,1,0.743735,angle,0
s103,transfer,399,L1,learn,-0.38636,-0.10352,1,1,1,0.67958,angle,0
s103,transfer,400,L17,learn,-0.452544,-0.452544,1,1,1,0.772685,angle,0
s103,transfer,401,L31,learn,0.38636,-0.10352,1,1,1,0.809315,angle,0
s103,transfer,402,T5,transfer,-0.7667,0.3067,,1,,1.01996,angle,0
s103,transfer,403,L1,learn,-0.38636,-0.10352,1,1,1,0.644295,angle,0
s103,transfer,404,T5,transfer,-0.7667,0.3067,,1,,0.6878,angle,0
s103,transfer,405,L30,learn,0,-1.84,0,0,1,0.759945,angle,0
s103,transfer,406,T8,transfer,0.3067,0.7667,,1,,0.75663,angle,0
s103,transfer,407,T4,transfer,0.7667,-0.3067,,1,,0.606605,angle,0
s103,transfer,408,T2,transfer,0.3067,-0.7667,,1,,0.508315,angle,0
s103,transfer,409,L2,learn,0.452544,0.452544,1,1,1,0.46894,angle,0
s103,transfer,410,L30,learn,0,-1.84,0,0,1,0.604095,angle,0
s103,transfer,411,L27,learn,1.301064,-1.301064,0,0,1,0.905075,angle,0
s103,transfer,412,L32,learn,0.10352,-0.38636,1,0,0,1.090675,angle,0
s103,transfer,413,L11,learn,0.64,0,1,1,1,0.820015,angle,0
s103,transfer,414,L28,learn,-0.64,0,1,1,1,0.4276,angle,0
s103,transfer,415,L9,learn,0,-0.64,1,1,1,0.86489,angle,0
s103,transfer,416,L12,learn,0.452544,-0.452544,1,1,1,0.48612,angle,0
s103,transfer,417,T4,transfer,0.7667,-0.3067,,0,,1.175165,angle,0
s103,transfer,418,L27,learn,1.301064,-1.301064,0,0,1,0.584895,angle,0
s103,transfer,419,L13,learn,-0.62,-1.07384,0,0,1,0.936745,angle,0
s103,transfer,420,T7,transfer,-0.3067,0.7667,,1,,0.85062,angle,0
s103,transfer,421,L25,learn,-1.07384,-0.62,0,1,0,0.63177,angle,0
s103,transfer,422,L20,learn,0.10352,0.38636,1,1,1,0.550385,angle,0
s103,transfer,423,L13,learn,-0.62,-1.07384,0,1,0,0.938005,angle,0
s103,transfer,424,L32,learn,0.10352,-0.38636,1,1,1,0.493965,angle,0
s103,transfer,425,L5,learn,1.07384,0.62,0,0,1,0.745615,angle,0
s103,transfer,426,L7,learn,-0.10352,0.38636,1,1,1,0.42987,angle,0
s103,transfer,427,L19,learn,-0.10352,-0.38636,1,1,1,0.54892,angle,0
s103,transfer,428,L21,learn,-1.301064,-1.301064,0,0,1,0.988115,angle,0
s103,transfer,429,L5,learn,1.07384,0.62,0,0,1,1.137105,angle,0
s103,transfer,430,L29,learn,-1.84,0,0,0,1,0.605825,angle,0
s103,transfer,431,L22,learn,1.07384,-0.62,0,0,1,0.509865,angle,0
s103,filler,432,F5,far,-1.5333,0,,0,,0.389885,angle,0
s103,filler,433,F4,corner,0.7667,-0.7667,,0,,1.0636,angle,0
s103,filler,434,F12,far,0,1.5333,,0,,1.147885,angle,0
s103,filler,435,F8,far,1.5333,0,,0,,0.916725,angle,0
s103,filler,436,F2,close,0,-1.0733,,0,,0.82218,angle,0
s103,filler,437,F6,close,-1.0733,0,,0,,0.91318,angle,0
s103,filler,438,F1,far,0,-1.5333,,0,,0.82712,angle,0
s103,filler,439,F11,close,0,1.0733,,0,,0.76621,angle,0
s103,filler,440,F7,close,1.0733,0,,0,,0.54452,angle,0
s103,filler,441,F3,corner,-0.7667,-0.7667,,0,,0.81329,angle,0
s103,filler,442,F9,corner,-0.7667,0.7667,,1,,0.928375,angle,0
s103,filler,443,F10,corner,0.7667,0.7667,,1,,0.678735,angle,0
s104,learn,1,L25,learn,-1.07384,-0.62,0,1,0,1.083,angle,0
s104,learn,2,L18,learn,-0.38636,0.10352,1,1,1,2.204,angle,0
s104,learn,3,L31,learn,0.38636,-0.10352,1,0,0,1.141,angle,0
s104,learn,4,L4,learn,-0.452544,0.452544,1,1,1,2.08,angle,0
s104,learn,5,L17,learn,-0.452544,-0.452544,1,1,1,1.546,angle,0
s104,learn,6,L27,learn,1.301064,-1.301064,0,0,1,1.432,angle,0
s104,learn,7,L11,learn,0.64,0,1,0,0,1.577,angle,0
s104,learn,8,L23,learn,1.301064,1.301064,0,0,1,1.208,angle,0
s104,learn,9,L32,learn,0.10352,-0.38636,1,1,1,1.827,angle,0
s104,learn,10,L16,learn,0,0.64,1,1,1,1.127,angle,0
s104,learn,11,L12,learn,0.452544,-0.452544,1,0,0,1.276,angle,0
s104,learn,12,L6,learn,0.62,-1.07384,0,1,0,1.211,angle,0
s104,learn,13,L22,learn,1.07384,-0.62,0,0,1,1.528,angle,0
s104,learn,14,L30,learn,0,-1.84,0,1,0,2.259,angle,0
s104,learn,15,L8,learn,1.84,0,0,0,1,1.714,angle,0
s104,learn,16,L1,learn,-0.38636,-0.10352,1,0,0,1.631,angle,0
s104,learn,17,L29,learn,-1.84,0,0,1,0,1.276,angle,0
s104,learn,18,L2,learn,0.452544,0.452544,1,0,0,1.009,angle,0
s104,learn,19,L19,learn,-0.10352,-0.38636,1,1,1,1.226,angle,0
s104,learn,20,L7,learn,-0.10352,0.38636,1,1,1,1.262,angle,0
s104,learn,21,L28,learn,-0.64,0,1,1,1,1.259,angle,0
s104,learn,22,L24,learn,-0.62,1.07384,0,1,0,1.343,angle,0
s104,learn,23,L14,learn,0.38636,0.10352,1,0,0,1.407,angle,0
s104,learn,24,L21,learn,-1.301064,-1.301064,0,1,0,1.315,angle,0
s104,learn,25,L9,learn,0,-0.64,1,1,1,2.129,angle,0
s104,learn,26,L13,learn,-0.62,-1.07384,0,1,0,1.96,angle,0
s104,learn,27,L20,learn,0.10352,0.38636,1,1,1,1.132,angle,0
s104,learn,28,L26,learn,-1.07384,0.62,0,1,0,1.395,angle,0
s104,learn,29,L3,learn,0.62,1.07384,0,0,1,1.009,angle,0
s104,learn,30,L15,learn,-1.301064,1.301064,0,1,0,1.242,angle,0
s104,learn,31,L10,learn,0,1.84,0,1,0,0.993,angle,0
s104,learn,32,L5,learn,1.07384,0.62,0,0,1,1.109,angle,0
s104,learn,33,L4,learn,-0.452544,0.452544,1,0,0,1.264,angle,0
s104,learn,34,L14,learn,0.38636,0.10352,1,1,1,1.126,angle,0
s104,learn,35,L19,learn,-0.10352,-0.38636,1,1,1,1.075,angle,0
s104,learn,36,L8,learn,1.84,0,0,0,1,1.331,angle,0
s104,learn,37,L5,learn,1.07384,0.62,0,0,1,1.477,angle,0
s104,learn,38,L27,learn,1.301064,-1.301064,0,1,0,1.026,angle,0
s104,learn,39,L11,learn,0.64,0,1,0,0,0.927,angle,0
s104,learn,40,L18,learn,-0.38636,0.10352,1,1,1,0.792,angle,0
s104,learn,41,L23,learn,1.301064,1.301064,0,0,1,1.358,angle,0
s104,learn,42,L32,learn,0.10352,-0.38636,1,0,0,1.392,angle,0
s104,learn,43,L6,learn,0.62,-1.07384,0,1,0,1.142,angle,0
s104,learn,44,L1,learn,-0.38636,-0.10352,1,1,1,0.846,angle,0
s104,learn,45,L9,learn,0,-0.64,1,1,1,1.191,angle,0
s104,learn,46,L3,learn,0.62,1.07384,0,1,0,1.26,angle,0
s104,learn,47,L12,learn,0.452544,-0.452544,1,0,0,1.226,angle,0
s104,learn,48,L28,learn,-0.64,0,1,1,1,2.209,angle,0
s104,learn,49,L17,learn,-0.452544,-0.452544,1,1,1,2.51,angle,0
s104,learn,50,L26,learn,-1.07384,0.62,0,1,0,1.243,angle,0
s104,learn,51,L30,learn,0,-1.84,0,1,0,1.059,angle,0
s104,learn,52,L2,learn,0.452544,0.452544,1,0,0,0.832,angle,0
s104,learn,53,L7,learn,-0.10352,0.38636,1,1,1,0.78,angle,0
s104,learn,54,L24,learn,-0.62,1.07384,0,1,0,1.644,angle,0
s104,learn,55,L31,learn,0.38636,-0.10352,1,1,1,1.024,angle,0
s104,learn,56,L21,learn,-1.301064,-1.301064,0,0,1,1.348,angle,0
s104,learn,57,L10,learn,0,1.84,0,1,0,1.227,angle,0
s104,learn,58,L25,learn,-1.07384,-0.62,0,1,0,1.226,angle,0
s104,learn,59,L22,learn,1.07384,-0.62,0,1,0,1.076,angle,0
s104,learn,60,L16,learn,0,0.64,1,0,0,1.165,angle,0
s104,learn,61,L15,learn,-1.301064,1.301064,0,1,0,0.764,angle,0
s104,learn,62,L20,learn,0.10352,0.38636,1,0,0,1.373,angle,0
s104,learn,63,L13,learn,-0.62,-1.07384,0,0,1,0.808,angle,0
s104,learn,64,L29,learn,-1.84,0,0,1,0,2.275,angle,0
s104,learn,65,L11,learn,0.64,0,1,0,0,1.213,angle,0
s104,learn,66,L3,learn,0.62,1.07384,0,1,0,1.099,angle,0
s104,learn,67,L22,learn,1.07384,-0.62,0,1,0,0.796,angle,0
s104,learn,68,L1,learn,-0.38636,-0.10352,1,0,0,1.082,angle,0
s104,learn,69,L12,learn,0.452544,-0.452544,1,1,1,0.844,angle,0
s104,learn,70,L18,learn,-0.38636,0.10352,1,1,1,1.15,angle,0
s104,learn,71,L5,learn,1.07384,0.62,0,1,0,1.729,angle,0
s104,learn,72,L8,learn,1.84,0,0,1,0,0.8,angle,0
s104,learn,73,L17,learn,-0.452544,-0.452544,1,1,1,0.864,angle,0
s104,learn,74,L20,learn,0.10352,0.38636,1,0,0,2.296,angle,0
s104,learn,75,L23,learn,1.301064,1.301064,0,1,0,2.176,angle,0
s104,learn,76,L9,learn,0,-0.64,1,1,1,1.077,angle,0
s104,learn,77,L19,learn,-0.10352,-0.38636,1,1,1,0.713,angle,0
s104,learn,78,L32,learn,0.10352,-0.38636,1,0,0,1.479,angle,0
s104,learn,79,L29,learn,-1.84,0,0,1,0,0.73,angle,0
s104,learn,80,L28,learn,-0.64,0,1,1,1,0.793,angle,0
s104,learn,81,L31,learn,0.38636,-0.10352,1,1,1,1.579,angle,0
s104,learn,82,L21,learn,-1.301064,-1.301064,0,0,1,0.845,angle,0
s104,learn,83,L10,learn,0,1.84,0,0,1,1.428,angle,0
s104,learn,84,L30,learn,0,-1.84,0,0,1,1.23,angle,0
s104,learn,85,L16,learn,0,0.64,1,1,1,1.45,angle,0
s104,learn,86,L27,learn,1.301064,-1.301064,0,0,1,1.01,angle,0
s104,learn,87,L26,learn,-1.07384,0.62,0,1,0,1.409,angle,0
s104,learn,88,L24,learn,-0.62,1.07384,0,0,1,1.163,angle,0
s104,learn,89,L6,learn,0.62,-1.07384,0,0,1,1.095,angle,0
s104,learn,90,L13,learn,-0.62,-1.07384,0,0,1,1.045,angle,0
s104,learn,91,L7,learn,-0.10352,0.38636,1,1,1,1.045,angle,0
s104,learn,92,L4,learn,-0.452544,0.452544,1,1,1,0.878,angle,0
s104,learn,93,L15,learn,-1.301064,1.301064,0,0,1,1.112,angle,0
s104,learn,94,L25,learn,-1.07384,-0.62,0,1,0,1.413,angle,0
s104,learn,95,L14,learn,0.38636,0.10352,1,1,1,0.979,angle,0
s104,learn,96,L2,learn,0.452544,0.452544,1,1,1,1.047,angle,0
s104,learn,97,L20,learn,0.10352,0.38636,1,1,1,1.16,angle,0
s104,learn,98,L26,learn,-1.07384,0.62,0,0,1,1.366,angle,0
s104,learn,99,L19,learn,-0.10352,-0.38636,1,1,1,1.228,angle,0
s104,learn,100,L16,learn,0,0.64,1,1,1,0.847,angle,0
s104,learn,101,L15,learn,-1.301064,1.301064,0,0,1,1.449,angle,0
s104,learn,102,L17,learn,-0.452544,-0.452544,1,1,1,1.241,angle,0
s104,learn,103,L11,learn,0.64,0,1,1,1,0.859,angle,0
s104,learn,104,L7,learn,-0.10352,0.38636,1,1,1,1.131,angle,0
s104,learn,105,L22,learn,1.07384,-0.62,0,0,1,1.182,angle,0
s104,learn,106,L2,learn,0.452544,0.452544,1,1,1,0.879,angle,0
s104,learn,107,L25,learn,-1.07384,-0.62,0,0,1,0.913,angle,0
s104,learn,108,L18,learn,-0.38636,0.10352,1,1,1,1.033,angle,0
s104,learn,109,L32,learn,0.10352,-0.38636,1,1,1,1.079,angle,0
s104,learn,110,L9,learn,0,-0.64,1,0,0,1.3,angle,0
s104,learn,111,L14,learn,0.38636,0.10352,1,1,1,0.728,angle,0
s104,learn,112,L4,learn,-0.452544,0.452544,1,1,1,1.029,angle,0
s104,learn,113,L10,learn,0,1.84,0,0,1,0.784,angle,0
s104,learn,114,L24,learn,-0.62,1.07384,0,0,1,1.409,angle,0
s104,learn,115,L5,learn,1.07384,0.62,0,1,0,1.042,angle,0
s104,learn,116,L31,learn,0.38636,-0.10352,1,1,1,0.875,angle,0
s104,learn,117,L23,learn,1.301064,1.301064,0,0,1,0.88,angle,0
s104,learn,118,L28,learn,-0.64,0,1,1,1,0.826,angle,0
s104,learn,119,L3,learn,0.62,1.07384,0,0,1,0.905,angle,0
s104,learn,120,L13,learn,-0.62,-1.07384,0,0,1,0.894,angle,0
s104,learn,121,L8,learn,1.84,0,0,1,0,0.862,angle,0
s104,learn,122,L29,learn,-1.84,0,0,1,0,0.776,angle,0
s104,learn,123,L12,learn,0.452544,-0.452544,1,0,0,1.347,angle,0
s104,learn,124,L21,learn,-1.301064,-1.301064,0,0,1,0.86,angle,0
s104,learn,125,L30,learn,0,-1.84,0,0,1,1.93,angle,0
s104,learn,126,L27,learn,1.301064,-1.301064,0,0,1,1.277,angle,0
s104,learn,127,L6,learn,0.62,-1.07384,0,0,1,1.56,angle,0
s104,learn,128,L1,learn,-0.38636,-0.10352,1,1,1,0.893,angle,0
s104,learn,129,L20,learn,0.10352,0.38636,1,1,1,0.961,angle,0
s104,learn,130,L13,learn,-0.62,-1.07384,0,0,1,1.246,angle,0
s104,learn,131,L16,learn,0,0.64,1,1,1,0.878,angle,0
s104,learn,132,L22,learn,1.07384,-0.62,0,0,1,0.846,angle,0
s104,learn,133,L29,learn,-1.84,0,0,1,0,0.78,angle,0
s104,learn,134,L30,learn,0,-1.84,0,0,1,0.829,angle,0
s104,learn,135,L19,learn,-0.10352,-0.38636,1,1,1,0.969,angle,0
s104,learn,136,L21,learn,-1.301064,-1.301064,0,0,1,0.817,angle,0
s104,learn,137,L5,learn,1.07384,0.62,0,1,0,1.179,angle,0
s104,learn,138,L6,learn,0.62,-1.07384,0,0,1,0.979,angle,0
s104,learn,139,L18,learn,-0.38636,0.10352,1,1,1,0.753,angle,0
s104,learn,140,L26,learn,-1.07384,0.62,0,1,0,0.943,angle,0
s104,learn,141,L9,learn,0,-0.64,1,0,0,1.233,angle,0
s104,learn,142,L7,learn,-0.10352,0.38636,1,1,1,0.741,angle,0
s104,learn,143,L3,learn,0.62,1.07384,0,1,0,1.28,angle,0
s104,learn,144,L24,learn,-0.62,1.07384,0,0,1,1.079,angle,0
s104,learn,145,L14,learn,0.38636,0.10352,1,1,1,0.999,angle,0
s104,learn,146,L17,learn,-0.452544,-0.452544,1,1,1,0.925,angle,0
s104,learn,147,L1,learn,-0.38636,-0.10352,1,1,1,0.745,angle,0
s104,learn,148,L32,learn,0.10352,-0.38636,1,1,1,0.708,angle,0
s104,learn,149,L8,learn,1.84,0,0,1,0,1.428,angle,0
s104,learn,150,L4,learn,-0.452544,0.452544,1,1,1,0.993,angle,0
s104,learn,151,L15,learn,-1.301064,1.301064,0,0,1,1.79,angle,0
s104,learn,152,L31,learn,0.38636,-0.10352,1,1,1,0.964,angle,0
s104,learn,153,L2,learn,0.452544,0.452544,1,1,1,0.995,angle,0
s104,learn,154,L25,learn,-1.07384,-0.62,0,0,1,0.96,angle,0
s104,learn,155,L28,learn,-0.64,0,1,1,1,1.094,angle,0
s104,learn,156,L10,learn,0,1.84,0,0,1,0.992,angle,0
s104,learn,157,L11,learn,0.64,0,1,1,1,0.981,angle,0
s104,learn,158,L23,learn,1.301064,1.301064,0,0,1,0.907,angle,0
s104,learn,159,L27,learn,1.301064,-1.301064,0,0,1,0.895,angle,0
s104,learn,160,L12,learn,0.452544,-0.452544,1,0,0,0.96,angle,0
s104,learn,161,L5,learn,1.07384,0.62,0,1,0,0.996,angle,0
s104,learn,162,L17,learn,-0.452544,-0.452544,1,1,1,0.861,angle,0
s104,learn,163,L6,learn,0.62,-1.07384,0,0,1,0.895,angle,0
s104,learn,164,L1,learn,-0.38636,-0.10352,1,0,0,1.784,angle,0
s104,learn,165,L28,learn,-0.64,0,1,1,1,0.834,angle,0
s104,learn,166,L7,learn,-0.10352,0.38636,1,1,1,0.767,angle,0
s104,learn,167,L8,learn,1.84,0,0,1,0,0.829,angle,0
s104,learn,168,L30,learn,0,-1.84,0,0,1,0.975,angle,0
s104,learn,169,L14,learn,0.38636,0.10352,1,1,1,0.832,angle,0
s104,learn,170,L20,learn,0.10352,0.38636,1,1,1,0.734,angle,0
s104,learn,171,L2,learn,0.452544,0.452544,1,1,1,0.88,angle,0
s104,learn,172,L25,learn,-1.07384,-0.62,0,0,1,1.02,angle,0
s104,learn,173,L9,learn,0,-0.64,1,0,0,1.316,angle,0
s104,learn,174,L12,learn,0.452544,-0.452544,1,1,1,0.978,angle,0
s104,learn,175,L31,learn,0.38636,-0.10352,1,1,1,0.795,angle,0
s104,learn,176,L16,learn,0,0.64,1,1,1,0.742,angle,0
s104,learn,177,L27,learn,1.301064,-1.301064,0,0,1,0.767,angle,0
s104,learn,178,L4,learn,-0.452544,0.452544,1,1,1,0.885,angle,0
s104,learn,179,L32,learn,0.10352,-0.38636,1,1,1,0.829,angle,0
s104,learn,180,L11,learn,0.64,0,1,1,1,0.684,angle,0
s104,learn,181,L26,learn,-1.07384,0.62,0,1,0,0.868,angle,0
s104,learn,182,L21,learn,-1.301064,-1.301064,0,0,1,0.976,angle,0
s104,learn,183,L3,learn,0.62,1.07384,0,0,1,1.025,angle,0
s104,learn,184,L15,learn,-1.301064,1.301064,0,0,1,1.093,angle,0
s104,learn,185,L22,learn,1.07384,-0.62,0,0,1,1.242,angle,0
s104,learn,186,L18,learn,-0.38636,0.10352,1,1,1,0.925,angle,0
s104,learn,187,L29,learn,-1.84,0,0,1,0,0.712,angle,0
s104,learn,188,L13,learn,-0.62,-1.07384,0,0,1,1.257,angle,0
s104,learn,189,L23,learn,1.301064,1.301064,0,0,1,1.147,angle,0
s104,learn,190,L19,learn,-0.10352,-0.38636,1,0,0,0.976,angle,0
s104,learn,191,L10,learn,0,1.84,0,0,1,0.976,angle,0
s104,learn,192,L24,learn,-0.62,1.07384,0,0,1,1.421,angle,0
s104,learn,193,L31,learn,0.38636,-0.10352,1,1,1,0.785,angle,0
s104,learn,194,L4,learn,-0.452544,0.452544,1,1,1,0.746,angle,0
s104,learn,195,L28,learn,-0.64,0,1,1,1,0.745,angle,0
s104,learn,196,L17,learn,-0.452544,-0.452544,1,1,1,1.685,angle,0
s104,learn,197,L21,learn,-1.301064,-1.301064,0,0,1,0.844,angle,0
s104,learn,198,L8,learn,1.84,0,0,1,0,2.149,angle,0
s104,learn,199,L16,learn,0,0.64,1,1,1,0.911,angle,0
s104,learn,200,L32,learn,0.10352,-0.38636,1,1,1,0.947,angle,0
s104,learn,201,L19,learn,-0.10352,-0.38636,1,1,1,0.911,angle,0
s104,learn,202,L6,learn,0.62,-1.07384,0,0,1,1.116,angle,0
s104,learn,203,L27,learn,1.301064,-1.301064,0,0,1,0.643,angle,0
s104,learn,204,L14,learn,0.38636,0.10352,1,1,1,1.013,angle,0
s104,learn,205,L2,learn,0.452544,0.452544,1,1,1,0.879,angle,0
s104,learn,206,L23,learn,1.301064,1.301064,0,0,1,1.116,angle,0
s104,learn,207,L18,learn,-0.38636,0.10352,1,1,1,0.963,angle,0
s104,learn,208,L20,learn,0.10352,0.38636,1,1,1,0.741,angle,0
s104,learn,209,L3,learn,0.62,1.07384,0,1,0,2.212,angle,0
s104,learn,210,L29,learn,-1.84,0,0,1,0,0.88,angle,0
s104,learn,211,L26,learn,-1.07384,0.62,0,1,0,0.842,angle,0
s104,learn,212,L9,learn,0,-0.64,1,0,0,1.042,angle,0
s104,learn,213,L15,learn,-1.301064,1.301064,0,0,1,1.066,angle,0
s104,learn,214,L5,learn,1.07384,0.62,0,1,0,1.075,angle,0
s104,learn,215,L30,learn,0,-1.84,0,0,1,1.044,angle,0
s104,learn,216,L25,learn,-1.07384,-0.62,0,0,1,0.909,angle,0
s104,learn,217,L7,learn,-0.10352,0.38636,1,1,1,0.875,angle,0
s104,learn,218,L10,learn,0,1.84,0,0,1,0.878,angle,0
s104,learn,219,L1,learn,-0.38636,-0.10352,1,1,1,0.977,angle,0
s104,learn,220,L11,learn,0.64,0,1,1,1,0.762,angle,0
s104,learn,221,L22,learn,1.07384,-0.62,0,0,1,0.896,angle,0
s104,learn,222,L12,learn,0.452544,-0.452544,1,1,1,1.144,angle,0
s104,learn,223,L24,learn,-0.62,1.07384,0,1,0,0.979,angle,0
s104,learn,224,L13,learn,-0.62,-1.07384,0,0,1,0.765,angle,0
s104,learn,225,L29,learn,-1.84,0,0,1,0,0.912,angle,0
s104,learn,226,L1,learn,-0.38636,-0.10352,1,1,1,0.868,angle,0
s104,learn,227,L21,learn,-1.301064,-1.301064,0,0,1,0.73,angle,0
s104,learn,228,L15,learn,-1.301064,1.301064,0,0,1,1.184,angle,0
s104,learn,229,L8,learn,1.84,0,0,0,1,1.208,angle,0
s104,learn,230,L30,learn,0,-1.84,0,0,1,0.895,angle,0
s104,learn,231,L31,learn,0.38636,-0.10352,1,1,1,0.96,angle,0
s104,learn,232,L25,learn,-1.07384,-0.62,0,1,0,1.362,angle,0
s104,learn,233,L5,learn,1.07384,0.62,0,1,0,0.795,angle,0
s104,learn,234,L13,learn,-0.62,-1.07384,0,0,1,1.018,angle,0
s104,learn,235,L26,learn,-1.07384,0.62,0,1,0,0.919,angle,0
s104,learn,236,L11,learn,0.64,0,1,1,1,0.879,angle,0
s104,learn,237,L12,learn,0.452544,-0.452544,1,1,1,0.929,angle,0
s104,learn,238,L32,learn,0.10352,-0.38636,1,1,1,0.726,angle,0
s104,learn,239,L16,learn,0,0.64,1,1,1,0.909,angle,0
s104,learn,240,L27,learn,1.301064,-1.301064,0,0,1,0.932,angle,0
s104,learn,241,L10,learn,0,1.84,0,1,0,1.279,angle,0
s104,learn,242,L24,learn,-0.62,1.07384,0,1,0,0.845,angle,0
s104,learn,243,L6,learn,0.62,-1.07384,0,0,1,0.761,angle,0
s104,learn,244,L28,learn,-0.64,0,1,1,1,0.979,angle,0
s104,learn,245,L22,learn,1.07384,-0.62,0,0,1,1.046,angle,0
s104,learn,246,L4,learn,-0.452544,0.452544,1,1,1,0.976,angle,0
s104,learn,247,L9,learn,0,-0.64,1,0,0,0.831,angle,0
s104,learn,248,L20,learn,0.10352,0.38636,1,1,1,0.862,angle,0
s104,learn,249,L19,learn,-0.10352,-0.38636,1,1,1,0.91,angle,0
s104,learn,250,L23,learn,1.301064,1.301064,0,0,1,1.963,angle,0
s104,learn,251,L7,learn,-0.10352,0.38636,1,1,1,0.943,angle,0
s104,learn,252,L18,learn,-0.38636,0.10352,1,1,1,0.792,angle,0
s104,learn,253,L17,learn,-0.452544,-0.452544,1,1,1,0.827,angle,0
s104,learn,254,L14,learn,0.38636,0.10352,1,1,1,0.798,angle,0
s104,learn,255,L2,learn,0.452544,0.452544,1,1,1,0.676,angle,0
s104,learn,256,L3,learn,0.62,1.07384,0,0,1,1.997,angle,0
s104,learn,257,L7,learn,-0.10352,0.38636,1,1,1,0.846,angle,0
s104,learn,258,L1,learn,-0.38636,-0.10352,1,1,1,0.727,angle,0
s104,learn,259,L12,learn,0.452544,-0.452544,1,1,1,0.878,angle,0
s104,learn,260,L16,learn,0,0.64,1,1,1,0.896,angle,0
s104,learn,261,L10,learn,0,1.84,0,0,1,1.482,angle,0
s104,learn,262,L15,learn,-1.301064,1.301064,0,0,1,1.43,angle,0
s104,learn,263,L29,learn,-1.84,0,0,1,0,0.968,angle,0
s104,learn,264,L25,learn,-1.07384,-0.62,0,1,0,2.419,angle,0
s104,learn,265,L8,learn,1.84,0,0,1,0,1.069,angle,0
s104,learn,266,L24,learn,-0.62,1.07384,0,1,0,0.997,angle,0
s104,learn,267,L22,learn,1.07384,-0.62,0,0,1,1.062,angle,0
s104,learn,268,L32,learn,0.10352,-0.38636,1,1,1,1.127,angle,0
s104,learn,269,L4,learn,-0.452544,0.452544,1,1,1,0.644,angle,0
s104,learn,270,L23,learn,1.301064,1.301064,0,0,1,1.035,angle,0
s104,learn,271,L18,learn,-0.38636,0.10352,1,1,1,0.967,angle,0
s104,learn,272,L27,learn,1.301064,-1.301064,0,0,1,0.791,angle,0
s104,learn,273,L3,learn,0.62,1.07384,0,1,0,0.865,angle,0
s104,learn,274,L2,learn,0.452544,0.452544,1,1,1,0.778,angle,0
s104,learn,275,L19,learn,-0.10352,-0.38636,1,0,0,0.765,angle,0
s104,learn,276,L20,learn,0.10352,0.38636,1,1,1,0.909,angle,0
s104,learn,277,L17,learn,-0.452544,-0.452544,1,1,1,1.35,angle,0
s104,learn,278,L26,learn,-1.07384,0.62,0,1,0,0.941,angle,0
s104,learn,279,L5,learn,1.07384,0.62,0,1,0,1.042,angle,0
s104,learn,280,L31,learn,0.38636,-0.10352,1,1,1,1.144,angle,0
s104,learn,281,L13,learn,-0.62,-1.07384,0,0,1,0.786,angle,0
s104,learn,282,L9,learn,0,-0.64,1,0,0,1.14,angle,0
s104,learn,283,L21,learn,-1.301064,-1.301064,0,0,1,1.39,angle,0
s104,learn,284,L30,learn,0,-1.84,0,0,1,0.865,angle,0
s104,learn,285,L11,learn,0.64,0,1,1,1,0.961,angle,0
s104,learn,286,L6,learn,0.62,-1.07384,0,0,1,0.762,angle,0
s104,learn,287,L28,learn,-0.64,0,1,1,1,1.013,angle,0
s104,learn,288,L14,learn,0.38636,0.10352,1,1,1,1.017,angle,0
s104,learn,289,L8,learn,1.84,0,0,1,0,0.995,angle,0
s104,learn,290,L12,learn,0.452544,-0.452544,1,1,1,1.113,angle,0
s104,learn,291,L10,learn,0,1.84,0,0,1,1.062,angle,0
s104,learn,292,L6,learn,0.62,-1.07384,0,0,1,0.878,angle,0
s104,learn,293,L15,learn,-1.301064,1.301064,0,1,0,0.977,angle,0
s104,learn,294,L2,learn,0.452544,0.452544,1,1,1,0.863,angle,0
s104,learn,295,L25,learn,-1.07384,-0.62,0,0,1,1.008,angle,0
s104,learn,296,L24,learn,-0.62,1.07384,0,1,0,1.193,angle,0
s104,learn,297,L3,learn,0.62,1.07384,0,1,0,0.834,angle,0
s104,learn,298,L1,learn,-0.38636,-0.10352,1,1,1,1.213,angle,0
s104,learn,299,L17,learn,-0.452544,-0.452544,1,1,1,0.981,angle,0
s104,learn,300,L29,learn,-1.84,0,0,1,0,0.812,angle,0
s104,learn,301,L21,learn,-1.301064,-1.301064,0,0,1,1.132,angle,0
s104,learn,302,L19,learn,-0.10352,-0.38636,1,1,1,0.982,angle,0
s104,learn,303,L26,learn,-1.07384,0.62,0,1,0,0.83,angle,0
s104,learn,304,L14,learn,0.38636,0.10352,1,1,1,0.879,angle,0
s104,learn,305,L20,learn,0.10352,0.38636,1,1,1,0.795,angle,0
s104,learn,306,L16,learn,0,0.64,1,1,1,0.691,angle,0
s104,learn,307,L22,learn,1.07384,-0.62,0,0,1,0.926,angle,0
s104,learn,308,L11,learn,0.64,0,1,1,1,1.078,angle,0
s104,learn,309,L13,learn,-0.62,-1.07384,0,0,1,0.845,angle,0
s104,learn,310,L32,learn,0.10352,-0.38636,1,1,1,0.946,angle,0
s104,learn,311,L4,learn,-0.452544,0.452544,1,1,1,0.815,angle,0
s104,learn,312,L23,learn,1.301064,1.301064,0,0,1,1.953,angle,0
s104,learn,313,L18,learn,-0.38636,0.10352,1,1,1,0.896,angle,0
s104,learn,314,L27,learn,1.301064,-1.301064,0,0,1,0.777,angle,0
s104,learn,315,L5,learn,1.07384,0.62,0,1,0,2.374,angle,0
s104,learn,316,L9,learn,0,-0.64,1,0,0,0.941,angle,0
s104,learn,317,L30,learn,0,-1.84,0,0,1,1.326,angle,0
s104,learn,318,L31,learn,0.38636,-0.10352,1,1,1,1.043,angle,0
s104,learn,319,L28,learn,-0.64,0,1,1,1,0.792,angle,0
s104,learn,320,L7,learn,-0.10352,0.38636,1,1,1,0.848,angle,0
s104,learn,321,L25,learn,-1.07384,-0.62,0,1,0,1.195,angle,0
s104,learn,322,L22,learn,1.07384,-0.62,0,0,1,0.897,angle,0
s104,learn,323,L5,learn,1.07384,0.62,0,1,0,1.295,angle,0
s104,learn,324,L10,learn,0,1.84,0,1,0,1.386,angle,0
s104,learn,325,L12,learn,0.452544,-0.452544,1,1,1,1.897,angle,0
s104,learn,326,L3,learn,0.62,1.07384,0,0,1,1.129,angle,0
s104,learn,327,L8,learn,1.84,0,0,0,1,2.31,angle,0
s104,learn,328,L16,learn,0,0.64,1,1,1,1.412,angle,0
s104,learn,329,L30,learn,0,-1.84,0,0,1,1.231,angle,0
s104,learn,330,L13,learn,-0.62,-1.07384,0,0,1,0.929,angle,0
s104,learn,331,L17,learn,-0.452544,-0.452544,1,1,1,0.986,angle,0
s104,learn,332,L31,learn,0.38636,-0.10352,1,1,1,1.099,angle,0
s104,learn,333,L32,learn,0.10352,-0.38636,1,1,1,0.78,angle,0
s104,learn,334,L4,learn,-0.452544,0.452544,1,1,1,0.896,angle,0
s104,learn,335,L9,learn,0,-0.64,1,1,1,1.012,angle,0
s104,learn,336,L21,learn,-1.301064,-1.301064,0,0,1,0.908,angle,0
s104,learn,337,L7,learn,-0.10352,0.38636,1,1,1,0.88,angle,0
s104,learn,338,L20,learn,0.10352,0.38636,1,1,1,0.809,angle,0
s104,learn,339,L1,learn,-0.38636,-0.10352,1,1,1,0.913,angle,0
s104,learn,340,L29,learn,-1.84,0,0,1,0,0.708,angle,0
s104,learn,341,L26,learn,-1.07384,0.62,0,1,0,0.943,angle,0
s104,learn,342,L27,learn,1.301064,-1.301064,0,0,1,1.197,angle,0
s104,learn,343,L15,learn,-1.301064,1.301064,0,0,1,1.256,angle,0
s104,learn,344,L23,learn,1.301064,1.301064,0,0,1,0.941,angle,0
s104,learn,345,L19,learn,-0.10352,-0.38636,1,1,1,0.892,angle,0
s104,learn,346,L2,learn,0.452544,0.452544,1,1,1,1.996,angle,0
s104,learn,347,L14,learn,0.38636,0.10352,1,1,1,0.859,angle,0
s104,learn,348,L28,learn,-0.64,0,1,1,1,0.734,angle,0
s104,learn,349,L24,learn,-0.62,1.07384,0,0,1,1.158,angle,0
s104,learn,350,L6,learn,0.62,-1.07384,0,0,1,1.542,angle,0
s104,learn,351,L11,learn,0.64,0,1,1,1,1.175,angle,0
s104,learn,352,L18,learn,-0.38636,0.10352,1,1,1,0.742,angle,0
s104,learn,353,L14,learn,0.38636,0.10352,1,1,1,0.728,angle,0
s104,learn,354,L21,learn,-1.301064,-1.301064,0,0,1,0.761,angle,0
s104,learn,355,L12,learn,0.452544,-0.452544,1,1,1,1.028,angle,0
s104,learn,356,L31,learn,0.38636,-0.10352,1,1,1,0.734,angle,0
s104,learn,357,L20,learn,0.10352,0.38636,1,1,1,0.847,angle,0
s104,learn,358,L16,learn,0,0.64,1,1,1,1.062,angle,0
s104,learn,359,L25,learn,-1.07384,-0.62,0,0,1,0.806,angle,0
s104,learn,360,L24,learn,-0.62,1.07384,0,0,1,1.112,angle,0
s104,learn,361,L17,learn,-0.452544,-0.452544,1,1,1,1.145,angle,0
s104,learn,362,L22,learn,1.07384,-0.62,0,1,0,0.892,angle,0
s104,learn,363,L9,learn,0,-0.64,1,0,0,1.576,angle,0
s104,learn,364,L10,learn,0,1.84,0,0,1,1.041,angle,0
s104,learn,365,L28,learn,-0.64,0,1,1,1,0.844,angle,0
s104,learn,366,L23,learn,1.301064,1.301064,0,0,1,0.794,angle,0
s104,learn,367,L6,learn,0.62,-1.07384,0,1,0,0.935,angle,0
s104,learn,368,L29,learn,-1.84,0,0,1,0,1.012,angle,0
s104,learn,369,L15,learn,-1.301064,1.301064,0,0,1,0.979,angle,0
s104,learn,370,L1,learn,-0.38636,-0.10352,1,1,1,0.995,angle,0
s104,learn,371,L27,learn,1.301064,-1.301064,0,0,1,0.76,angle,0
s104,learn,372,L3,learn,0.62,1.07384,0,0,1,1.482,angle,0
s104,learn,373,L19,learn,-0.10352,-0.38636,1,1,1,1.079,angle,0
s104,learn,374,L8,learn,1.84,0,0,0,1,1.445,angle,0
s104,learn,375,L26,learn,-1.07384,0.62,0,1,0,1.234,angle,0
s104,learn,376,L5,learn,1.07384,0.62,0,0,1,0.861,angle,0
s104,learn,377,L4,learn,-0.452544,0.452544,1,0,0,1.242,angle,0
s104,learn,378,L7,learn,-0.10352,0.38636,1,1,1,0.811,angle,0
s104,learn,379,L2,learn,0.452544,0.452544,1,1,1,0.913,angle,0
s104,learn,380,L18,learn,-0.38636,0.10352,1,1,1,1.926,angle,0
s104,learn,381,L11,learn,0.64,0,1,1,1,0.907,angle,0
s104,learn,382,L30,learn,0,-1.84,0,0,1,0.759,angle,0
s104,learn,383,L13,learn,-0.62,-1.07384,0,0,1,0.876,angle,0
s104,learn,384,L32,learn,0.10352,-0.38636,1,1,1,0.88,angle,0
s104,learn,385,L5,learn,1.07384,0.62,0,0,1,0.785,angle,0
s104,learn,386,L1,learn,-0.38636,-0.10352,1,1,1,0.844,angle,0
s104,learn,387,L22,learn,1.07384,-0.62,0,1,0,1.896,angle,0
s104,learn,388,L25,learn,-1.07384,-0.62,0,0,1,1.462,angle,0
s104,learn,389,L24,learn,-0.62,1.07384,0,0,1,0.915,angle,0
s104,learn,390,L20,learn,0.10352,0.38636,1,1,1,0.935,angle,0
s104,learn,391,L6,learn,0.62,-1.07384,0,0,1,0.779,angle,0
s104,learn,392,L31,learn,0.38636,-0.10352,1,1,1,1.426,angle,0
s104,learn,393,L7,learn,-0.10352,0.38636,1,1,1,1.169,angle,0
s104,learn,394,L16,learn,0,0.64,1,1,1,1.229,angle,0
s104,learn,395,L14,learn,0.38636,0.10352,1,1,1,1.899,angle,0
s104,learn,396,L3,learn,0.62,1.07384,0,1,0,1.23,angle,0
s104,learn,397,L27,learn,1.301064,-1.301064,0,0,1,0.815,angle,0
s104,learn,398,L32,learn,0.10352,-0.38636,1,1,1,0.829,angle,0
s104,learn,399,L9,learn,0,-0.64,1,1,1,0.711,angle,0
s104,learn,400,L30,learn,0,-1.84,0,0,1,0.813,angle,0
s104,learn,401,L18,learn,-0.38636,0.10352,1,1,1,0.977,angle,0
s104,learn,402,L10,learn,0,1.84,0,1,0,1.191,angle,0
s104,learn,403,L26,learn,-1.07384,0.62,0,1,0,1.492,angle,0
s104,learn,404,L28,learn,-0.64,0,1,1,1,0.856,angle,0
s104,learn,405,L13,learn,-0.62,-1.07384,0,0,1,0.762,angle,0
s104,learn,406,L19,learn,-0.10352,-0.38636,1,1,1,0.944,angle,0
s104,learn,407,L4,learn,-0.452544,0.452544,1,1,1,0.81,angle,0
s104,learn,408,L2,learn,0.452544,0.452544,1,1,1,0.717,angle,0
s104,learn,409,L11,learn,0.64,0,1,1,1,0.684,angle,0
s104,learn,410,L8,learn,1.84,0,0,0,1,1.143,angle,0
s104,learn,411,L12,learn,0.452544,-0.452544,1,1,1,1.049,angle,0
s104,learn,412,L23,learn,1.301064,1.301064,0,0,1,0.9,angle,0
s104,learn,413,L21,learn,-1.301064,-1.301064,0,0,1,1.126,angle,0
s104,learn,414,L29,learn,-1.84,0,0,0,1,1.075,angle,0
s104,learn,415,L17,learn,-0.452544,-0.452544,1,1,1,1.125,angle,0
s104,learn,416,L15,learn,-1.301064,1.301064,0,0,1,1.192,angle,0
s104,learn,417,L24,learn,-0.62,1.07384,0,1,0,1.894,angle,0
s104,learn,418,L16,learn,0,0.64,1,1,1,0.845,angle,0
s104,learn,419,L12,learn,0.452544,-0.452544,1,1,1,0.861,angle,0
s104,learn,420,L21,learn,-1.301064,-1.301064,0,0,1,0.899,angle,0
s104,learn,421,L14,learn,0.38636,0.10352,1,1,1,0.862,angle,0
s104,learn,422,L30,learn,0,-1.84,0,0,1,0.678,angle,0
s104,learn,423,L7,learn,-0.10352,0.38636,1,1,1,0.826,angle,0
s104,learn,424,L18,learn,-0.38636,0.10352,1,1,1,0.73,angle,0
s104,learn,425,L20,learn,0.10352,0.38636,1,1,1,0.692,angle,0
s104,learn,426,L13,learn,-0.62,-1.07384,0,0,1,0.716,angle,0
s104,learn,427,L5,learn,1.07384,0.62,0,1,0,1.191,angle,0
s104,learn,428,L19,learn,-0.10352,-0.38636,1,1,1,0.762,angle,0
s104,learn,429,L15,learn,-1.301064,1.301064,0,0,1,1.147,angle,0
s104,learn,430,L28,learn,-0.64,0,1,1,1,0.795,angle,0
s104,learn,431,L8,learn,1.84,0,0,0,1,1.128,angle,0
s104,learn,432,L6,learn,0.62,-1.07384,0,0,1,1.091,angle,0
s104,learn,433,L10,learn,0,1.84,0,0,1,1.263,angle,0
s104,learn,434,L17,learn,-0.452544,-0.452544,1,1,1,1.098,angle,0
s104,learn,435,L27,learn,1.301064,-1.301064,0,0,1,1.175,angle,0
s104,learn,436,L32,learn,0.10352,-0.38636,1,1,1,0.984,angle,0
s104,learn,437,L25,learn,-1.07384,-0.62,0,1,0,1.56,angle,0
s104,learn,438,L31,learn,0.38636,-0.10352,1,1,1,0.767,angle,0
s104,learn,439,L2,learn,0.452544,0.452544,1,1,1,0.796,angle,0
s104,learn,440,L22,learn,1.07384,-0.62,0,0,1,0.858,angle,0
s104,learn,441,L11,learn,0.64,0,1,1,1,0.845,angle,0
s104,learn,442,L29,learn,-1.84,0,0,0,1,1.345,angle,0
s104,learn,443,L23,learn,1.301064,1.301064,0,0,1,1.23,angle,0
s104,learn,444,L4,learn,-0.452544,0.452544,1,1,1,0.943,angle,0
s104,learn,445,L3,learn,0.62,1.07384,0,0,1,1.059,angle,0
s104,learn,446,L26,learn,-1.07384,0.62,0,1,0,0.908,angle,0
s104,learn,447,L1,learn,-0.38636,-0.10352,1,1,1,0.825,angle,0
s104,learn,448,L9,learn,0,-0.64,1,0,0,1.265,angle,0
s104,learn,449,L30,learn,0,-1.84,0,0,1,0.812,angle,0
s104,learn,450,L11,learn,0.64,0,1,1,1,0.877,angle,0
s104,learn,451,L32,learn,0.10352,-0.38636,1,1,1,1.579,angle,0
s104,learn,452,L6,learn,0.62,-1.07384,0,0,1,0.784,angle,0
s104,learn,453,L22,learn,1.07384,-0.62,0,0,1,0.967,angle,0
s104,learn,454,L15,learn,-1.301064,1.301064,0,0,1,1.035,angle,0
s104,learn,455,L31,learn,0.38636,-0.10352,1,1,1,1.296,angle,0
s104,learn,456,L20,learn,0.10352,0.38636,1,1,1,1.382,angle,0
s104,learn,457,L14,learn,0.38636,0.10352,1,1,1,0.913,angle,0
s104,learn,458,L2,learn,0.452544,0.452544,1,1,1,0.75,angle,0
s104,learn,459,L12,learn,0.452544,-0.452544,1,1,1,0.892,angle,0
s104,learn,460,L23,learn,1.301064,1.301064,0,0,1,1.066,angle,0
s104,learn,461,L16,learn,0,0.64,1,1,1,0.916,angle,0
s104,learn,462,L24,learn,-0.62,1.07384,0,1,0,0.939,angle,0
s104,learn,463,L26,learn,-1.07384,0.62,0,1,0,1.031,angle,0
s104,learn,464,L10,learn,0,1.84,0,0,1,0.958,angle,0
s104,learn,465,L8,learn,1.84,0,0,0,1,1.392,angle,0
s104,learn,466,L18,learn,-0.38636,0.10352,1,1,1,1.263,angle,0
s104,learn,467,L29,learn,-1.84,0,0,1,0,0.696,angle,0
s104,learn,468,L5,learn,1.07384,0.62,0,1,0,1.445,angle,0
s104,learn,469,L9,learn,0,-0.64,1,0,0,1.016,angle,0
s104,learn,470,L17,learn,-0.452544,-0.452544,1,1,1,0.713,angle,0
s104,learn,471,L19,learn,-0.10352,-0.38636,1,1,1,0.658,angle,0
s104,learn,472,L27,learn,1.301064,-1.301064,0,0,1,0.747,angle,0
s104,learn,473,L1,learn,-0.38636,-0.10352,1,1,1,0.786,angle,0
s104,learn,474,L4,learn,-0.452544,0.452544,1,0,0,1.362,angle,0
s104,learn,475,L7,learn,-0.10352,0.38636,1,1,1,0.559,angle,0
s104,learn,476,L28,learn,-0.64,0,1,1,1,0.757,angle,0
s104,learn,477,L21,learn,-1.301064,-1.301064,0,0,1,0.71,angle,0
s104,learn,478,L3,learn,0.62,1.07384,0,0,1,1.402,angle,0
s104,learn,479,L25,learn,-1.07384,-0.62,0,1,0,1.724,angle,0
s104,learn,480,L13,learn,-0.62,-1.07384,0,1,0,0.925,angle,0
s104,learn,481,L31,learn,0.38636,-0.10352,1,1,1,1.211,angle,0
s104,learn,482,L9,learn,0,-0.64,1,1,1,0.827,angle,0
s104,learn,483,L13,learn,-0.62,-1.07384,0,0,1,0.912,angle,0
s104,learn,484,L14,learn,0.38636,0.10352,1,1,1,1.179,angle,0
s104,learn,485,L11,learn,0.64,0,1,1,1,0.645,angle,0
s104,learn,486,L26,learn,-1.07384,0.62,0,1,0,1.435,angle,0
s104,learn,487,L5,learn,1.07384,0.62,0,1,0,1.445,angle,0
s104,learn,488,L4,learn,-0.452544,0.452544,1,0,0,0.879,angle,0
s104,learn,489,L28,learn,-0.64,0,1,1,1,0.862,angle,0
s104,learn,490,L17,learn,-0.452544,-0.452544,1,1,1,0.832,angle,0
s104,learn,491,L21,learn,-1.301064,-1.301064,0,0,1,0.762,angle,0
s104,learn,492,L16,learn,0,0.64,1,1,1,0.822,angle,0
s104,learn,493,L15,learn,-1.301064,1.301064,0,0,1,1.242,angle,0
s104,learn,494,L32,learn,0.10352,-0.38636,1,1,1,0.692,angle,0
s104,learn,495,L25,learn,-1.07384,-0.62,0,1,0,0.78,angle,0
s104,learn,496,L7,learn,-0.10352,0.38636,1,1,1,0.761,angle,0
s104,learn,497,L2,learn,0.452544,0.452544,1,1,1,0.73,angle,0
s104,learn,498,L30,learn,0,-1.84,0,0,1,0.727,angle,0
s104,learn,499,L27,learn,1.301064,-1.301064,0,0,1,0.793,angle,0
s104,learn,500,L29,learn,-1.84,0,0,0,1,1.569,angle,0
s104,learn,501,L8,learn,1.84,0,0,0,1,1.278,angle,0
s104,learn,502,L12,learn,0.452544,-0.452544,1,1,1,1.461,angle,0
s104,learn,503,L24,learn,-0.62,1.07384,0,0,1,1.26,angle,0
s104,learn,504,L19,learn,-0.10352,-0.38636,1,1,1,0.662,angle,0
s104,learn,505,L6,learn,0.62,-1.07384,0,0,1,0.846,angle,0
s104,learn,506,L18,learn,-0.38636,0.10352,1,1,1,0.83,angle,0
s104,learn,507,L20,learn,0.10352,0.38636,1,1,1,0.892,angle,0
s104,learn,508,L22,learn,1.07384,-0.62,0,0,1,1.141,angle,0
s104,learn,509,L23,learn,1.301064,1.301064,0,0,1,0.882,angle,0
s104,learn,510,L1,learn,-0.38636,-0.10352,1,1,1,1.009,angle,0
s104,learn,511,L3,learn,0.62,1.07384,0,0,1,1.03,angle,0
s104,learn,512,L10,learn,0,1.84,0,0,1,1.159,angle,0
s104,learn,513,L27,learn,1.301064,-1.301064,0,0,1,1.029,angle,0
s104,learn,514,L32,learn,0.10352,-0.38636,1,1,1,1.612,angle,0
s104,learn,515,L12,learn,0.452544,-0.452544,1,1,1,0.719,angle,0
s104,learn,516,L16,learn,0,0.64,1,1,1,0.778,angle,0
s104,learn,517,L21,learn,-1.301064,-1.301064,0,0,1,0.835,angle,0
s104,learn,518,L6,learn,0.62,-1.07384,0,0,1,0.862,angle,0
s104,learn,519,L4,learn,-0.452544,0.452544,1,1,1,0.912,angle,0
s104,learn,520,L28,learn,-0.64,0,1,1,1,0.729,angle,0
s104,learn,521,L3,learn,0.62,1.07384,0,0,1,1.863,angle,0
s104,learn,522,L11,learn,0.64,0,1,1,1,1.06,angle,0
