subj,phase,trial,stim,stim_type,f1,f2,c,resp,corr,rt,f1_is,e_is
s201,learn,1,L17,learn,0.134249672778992,0.665358110318393,0,0,1,2.099,size,0
s201,learn,2,L11,learn,-7.28850576128638,-4.27296495284132,1,1,1,0.589,size,0
s201,learn,3,L14,learn,-0.944278214366407,-0.885701689158013,0,1,0,0.659,size,0
s201,learn,4,L16,learn,-4.32525809607953,-4.49224278073692,0,1,0,0.736,size,0
s201,learn,5,L15,learn,-1.55572178563359,1.13570168915801,1,0,0,0.816,size,0
s201,learn,6,L13,learn,-2.63424967277899,-0.415358110318393,1,1,1,1.083,size,0
s201,learn,7,L18,learn,3.05634619548501,2.73355920733567,0,0,1,1.016,size,0
s201,learn,8,L2,learn,4.78850576128638,4.52296495284132,0,0,1,0.758,size,0
s201,learn,9,L1,learn,-1.87481181428957,-1.78279251880948,0,1,0,0.833,size,0
s201,learn,10,L6,learn,-4.03805215285124,-3.6653889577802,0,0,1,0.717,size,0
s201,learn,11,L10,learn,1.82525809607953,4.74224278073692,1,0,0,1.016,size,0
s201,learn,12,L19,learn,-0.62518818571043,2.03279251880948,1,0,0,0.904,size,0
s201,learn,13,L7,learn,-3.38210011039243,-3.77146347623162,0,0,1,0.991,size,0
s201,learn,14,L4,learn,-3.6443518165071,-0.678950000151332,1,0,0,0.9,size,0
s201,learn,15,L20,learn,-7.94104694192171,-5.49675715206952,1,0,0,0.932,size,0
s201,learn,16,L8,learn,1.1443518165071,0.928950000151332,0,1,0,1.049,size,0
s201,learn,17,L3,learn,5.44104694192171,5.74675715206952,0,0,1,1.617,size,0
s201,learn,18,L9,learn,-5.55634619548501,-2.48355920733567,1,1,1,0.861,size,0
s201,learn,19,L12,learn,0.88210011039243,4.02146347623162,1,0,0,0.903,size,0
s201,learn,20,L5,learn,1.53805215285124,3.9153889577802,1,1,1,0.785,size,0
s201,learn,21,L11,learn,-7.28850576128638,-4.27296495284132,1,0,0,1.235,size,0
s201,learn,22,L18,learn,3.05634619548501,2.73355920733567,0,0,1,0.725,size,0
s201,learn,23,L6,learn,-4.03805215285124,-3.6653889577802,0,0,1,1.05,size,0
s201,learn,24,L5,learn,1.53805215285124,3.9153889577802,1,1,1,0.976,size,0
s201,learn,25,L16,learn,-4.32525809607953,-4.49224278073692,0,0,1,2.075,size,0
s201,learn,26,L9,learn,-5.55634619548501,-2.48355920733567,1,0,0,0.807,size,0
s201,learn,27,L12,learn,0.88210011039243,4.02146347623162,1,1,1,0.809,size,0
s201,learn,28,L4,learn,-3.6443518165071,-0.678950000151332,1,1,1,1.302,size,0
s201,learn,29,L14,learn,-0.944278214366407,-0.885701689158013,0,0,1,1.025,size,0
s201,learn,30,L2,learn,4.78850576128638,4.52296495284132,0,1,0,1.218,size,0
s201,learn,31,L3,learn,5.44104694192171,5.74675715206952,0,0,1,0.515,size,0
s201,learn,32,L17,learn,0.134249672778992,0.665358110318393,0,1,0,0.842,size,0
s201,learn,33,L8,learn,1.1443518165071,0.928950000151332,0,0,1,0.641,size,0
s201,learn,34,L20,learn,-7.94104694192171,-5.49675715206952,1,0,0,0.984,size,0
s201,learn,35,L7,learn,-3.38210011039243,-3.77146347623162,0,1,0,0.435,size,0
s201,learn,36,L13,learn,-2.63424967277899,-0.415358110318393,1,1,1,1.084,size,0
s201,learn,37,L19,learn,-0.62518818571043,2.03279251880948,1,1,1,0.986,size,0
s201,learn,38,L15,learn,-1.55572178563359,1.13570168915801,1,1,1,0.867,size,0
s201,learn,39,L10,learn,1.82525809607953,4.74224278073692,1,0,0,0.675,size,0
s201,learn,40,L1,learn,-1.87481181428957,-1.78279251880948,0,1,0,1.82,size,0
s201,learn,41,L18,learn,3.05634619548501,2.73355920733567,0,0,1,0.94,size,0
s201,learn,42,L7,learn,-3.38210011039243,-3.77146347623162,0,0,1,0.783,size,0
s201,learn,43,L14,learn,-0.944278214366407,-0.885701689158013,0,0,1,0.702,size,0
s201,learn,44,L8,learn,1.1443518165071,0.928950000151332,0,1,0,0.817,size,0
s201,learn,45,L11,learn,-7.28850576128638,-4.27296495284132,1,1,1,2.118,size,0
s201,learn,46,L5,learn,1.53805215285124,3.9153889577802,1,1,1,1.033,size,0
s201,learn,47,L13,learn,-2.63424967277899,-0.415358110318393,1,0,0,0.816,size,0
s201,learn,48,L19,learn,-0.62518818571043,2.03279251880948,1,1,1,0.777,size,0
s201,learn,49,L9,learn,-5.55634619548501,-2.48355920733567,1,1,1,1.652,size,0
s201,learn,50,L17,learn,0.134249672778992,0.665358110318393,0,1,0,1.158,size,0
s201,learn,51,L16,learn,-4.32525809607953,-4.49224278073692,0,0,1,1.143,size,0
s201,learn,52,L3,learn,5.44104694192171,5.74675715206952,0,0,1,0.841,size,0
s201,learn,53,L1,learn,-1.87481181428957,-1.78279251880948,0,1,0,0.991,size,0
s201,learn,54,L20,learn,-7.94104694192171,-5.49675715206952,1,1,1,0.943,size,0
s201,learn,55,L15,learn,-1.55572178563359,1.13570168915801,1,0,0,1.181,size,0
s201,learn,56,L2,learn,4.78850576128638,4.52296495284132,0,0,1,0.66,size,0
s201,learn,57,L4,learn,-3.6443518165071,-0.678950000151332,1,1,1,0.728,size,0
s201,learn,58,L12,learn,0.88210011039243,4.02146347623162,1,1,1,0.925,size,0
s201,learn,59,L6,learn,-4.03805215285124,-3.6653889577802,0,0,1,0.933,size,0
s201,learn,60,L10,learn,1.82525809607953,4.74224278073692,1,1,1,0.917,size,0
s201,learn,61,L17,learn,0.134249672778992,0.665358110318393,0,0,1,1.905,size,0
s201,learn,62,L2,learn,4.78850576128638,4.52296495284132,0,0,1,0.771,size,0
s201,learn,63,L15,learn,-1.55572178563359,1.13570168915801,1,1,1,0.785,size,0
s201,learn,64,L12,learn,0.88210011039243,4.02146347623162,1,1,1,0.934,size,0
s201,learn,65,L5,learn,1.53805215285124,3.9153889577802,1,1,1,0.619,size,0
s201,learn,66,L7,learn,-3.38210011039243,-3.77146347623162,0,0,1,2.649,size,0
s201,learn,67,L4,learn,-3.6443518165071,-0.678950000151332,1,0,0,1.017,size,0
s201,learn,68,L6,learn,-4.03805215285124,-3.6653889577802,0,1,0,0.732,size,0
s201,learn,69,L1,learn,-1.87481181428957,-1.78279251880948,0,0,1,0.725,size,0
s201,learn,70,L9,learn,-5.55634619548501,-2.48355920733567,1,1,1,0.766,size,0
s201,learn,71,L16,learn,-4.32525809607953,-4.49224278073692,0,1,0,0.7,size,0
s201,learn,72,L8,learn,1.1443518165071,0.928950000151332,0,0,1,1.1,size,0
s201,learn,73,L3,learn,5.44104694192171,5.74675715206952,0,0,1,0.618,size,0
s201,learn,74,L14,learn,-0.944278214366407,-0.885701689158013,0,1,0,1.167,size,0
s201,learn,75,L20,learn,-7.94104694192171,-5.49675715206952,1,1,1,0.651,size,0
s201,learn,76,L18,learn,3.05634619548501,2.73355920733567,0,0,1,0.561,size,0
s201,learn,77,L10,learn,1.82525809607953,4.74224278073692,1,0,0,0.527,size,0
s201,learn,78,L19,learn,-0.62518818571043,2.03279251880948,1,0,0,0.623,size,0
s201,learn,79,L11,learn,-7.28850576128638,-4.27296495284132,1,1,1,0.671,size,0
s201,learn,80,L13,learn,-2.63424967277899,-0.415358110318393,1,1,1,0.933,size,0
s201,learn,81,L9,learn,-5.55634619548501,-2.48355920733567,1,0,0,0.935,size,0
s201,learn,82,L13,learn,-2.63424967277899,-0.415358110318393,1,1,1,1.833,size,0
s201,learn,83,L8,learn,1.1443518165071,0.928950000151332,0,1,0,1.074,size,0
s201,learn,84,L14,learn,-0.944278214366407,-0.885701689158013,0,0,1,0.909,size,0
s201,learn,85,L7,learn,-3.38210011039243,-3.77146347623162,0,0,1,1.168,size,0
s201,learn,86,L5,learn,1.53805215285124,3.9153889577802,1,1,1,1.001,size,0
s201,learn,87,L16,learn,-4.32525809607953,-4.49224278073692,0,1,0,1.301,size,0
s201,learn,88,L19,learn,-0.62518818571043,2.03279251880948,1,1,1,0.933,size,0
s201,learn,89,L10,learn,1.82525809607953,4.74224278073692,1,0,0,0.838,size,0
s201,learn,90,L15,learn,-1.55572178563359,1.13570168915801,1,1,1,0.759,size,0
s201,learn,91,L20,learn,-7.94104694192171,-5.49675715206952,1,1,1,0.824,size,0
s201,learn,92,L1,learn,-1.87481181428957,-1.78279251880948,0,1,0,1.234,size,0
s201,learn,93,L11,learn,-7.28850576128638,-4.27296495284132,1,1,1,1.019,size,0
s201,learn,94,L6,learn,-4.03805215285124,-3.6653889577802,0,0,1,0.866,size,0
s201,learn,95,L17,learn,0.134249672778992,0.665358110318393,0,0,1,0.973,size,0
s201,learn,96,L12,learn,0.88210011039243,4.02146347623162,1,1,1,0.84,size,0
s201,learn,97,L4,learn,-3.6443518165071,-0.678950000151332,1,0,0,0.717,size,0
s201,learn,98,L2,learn,4.78850576128638,4.52296495284132,0,0,1,0.773,size,0
s201,learn,99,L18,learn,3.05634619548501,2.73355920733567,0,0,1,1.033,size,0
s201,learn,100,L3,learn,5.44104694192171,5.74675715206952,0,0,1,0.65,size,0
s201,learn,101,L10,learn,1.82525809607953,4.74224278073692,1,0,0,0.76,size,0
s201,learn,102,L7,learn,-3.38210011039243,-3.77146347623162,0,1,0,0.834,size,0
s201,learn,103,L12,learn,0.88210011039243,4.02146347623162,1,1,1,0.933,size,0
s201,learn,104,L20,learn,-7.94104694192171,-5.49675715206952,1,1,1,0.634,size,0
s201,learn,105,L5,learn,1.53805215285124,3.9153889577802,1,1,1,0.905,size,0
s201,learn,106,L8,learn,1.1443518165071,0.928950000151332,0,0,1,1.299,size,0
s201,learn,107,L9,learn,-5.55634619548501,-2.48355920733567,1,1,1,1.739,size,0
s201,learn,108,L13,learn,-2.63424967277899,-0.415358110318393,1,0,0,1.02,size,0
s201,learn,109,L1,learn,-1.87481181428957,-1.78279251880948,0,1,0,0.683,size,0
s201,learn,110,L16,learn,-4.32525809607953,-4.49224278073692,0,1,0,0.783,size,0
s201,learn,111,L6,learn,-4.03805215285124,-3.6653889577802,0,0,1,0.685,size,0
s201,learn,112,L18,learn,3.05634619548501,2.73355920733567,0,0,1,1.117,size,0
s201,learn,113,L4,learn,-3.6443518165071,-0.678950000151332,1,1,1,1.287,size,0
s201,learn,114,L15,learn,-1.55572178563359,1.13570168915801,1,0,0,0.721,size,0
s201,learn,115,L3,learn,5.44104694192171,5.74675715206952,0,0,1,0.598,size,0
s201,learn,116,L11,learn,-7.28850576128638,-4.27296495284132,1,1,1,1.338,size,0
s201,learn,117,L17,learn,0.134249672778992,0.665358110318393,0,0,1,0.885,size,0
s201,learn,118,L2,learn,4.78850576128638,4.52296495284132,0,0,1,0.834,size,0
s201,learn,119,L19,learn,-0.62518818571043,2.03279251880948,1,1,1,1.072,size,0
s201,learn,120,L14,learn,-0.944278214366407,-0.885701689158013,0,1,0,0.884,size,0
s201,learn,121,L19,learn,-0.62518818571043,2.03279251880948,1,1,1,1.235,size,0
s201,learn,122,L5,learn,1.53805215285124,3.9153889577802,1,0,0,0.835,size,0
s201,learn,123,L3,learn,5.44104694192171,5.74675715206952,0,0,1,0.535,size,0
s201,learn,124,L11,learn,-7.28850576128638,-4.27296495284132,1,1,1,0.633,size,0
s201,learn,125,L18,learn,3.05634619548501,2.73355920733567,0,1,0,1.884,size,0
s201,learn,126,L6,learn,-4.03805215285124,-3.6653889577802,0,1,0,0.818,size,0
s201,learn,127,L15,learn,-1.55572178563359,1.13570168915801,1,0,0,0.935,size,0
s201,learn,128,L13,learn,-2.63424967277899,-0.415358110318393,1,1,1,0.619,size,0
s201,learn,129,L7,learn,-3.38210011039243,-3.77146347623162,0,1,0,1.157,size,0
s201,learn,130,L16,learn,-4.32525809607953,-4.49224278073692,0,1,0,0.689,size,0
s201,learn,131,L8,learn,1.1443518165071,0.928950000151332,0,0,1,0.859,size,0
s201,learn,132,L2,learn,4.78850576128638,4.52296495284132,0,0,1,0.873,size,0
s201,learn,133,L1,learn,-1.87481181428957,-1.78279251880948,0,0,1,1.416,size,0
s201,learn,134,L12,learn,0.88210011039243,4.02146347623162,1,1,1,1.5,size,0
s201,learn,135,L20,learn,-7.94104694192171,-5.49675715206952,1,1,1,0.67,size,0
s201,learn,136,L4,learn,-3.6443518165071,-0.678950000151332,1,1,1,0.922,size,0
s201,learn,137,L17,learn,0.134249672778992,0.665358110318393,0,0,1,0.917,size,0
s201,learn,138,L10,learn,1.82525809607953,4.74224278073692,1,1,1,0.922,size,0
s201,learn,139,L14,learn,-0.944278214366407,-0.885701689158013,0,0,1,1.119,size,0
s201,learn,140,L9,learn,-5.55634619548501,-2.48355920733567,1,1,1,0.866,size,0
s201,learn,141,L9,learn,-5.55634619548501,-2.48355920733567,1,1,1,0.586,size,0
s201,learn,142,L4,learn,-3.6443518165071,-0.678950000151332,1,1,1,0.826,size,0
s201,learn,143,L17,learn,0.134249672778992,0.665358110318393,0,0,1,1.593,size,0
s201,learn,144,L7,learn,-3.38210011039243,-3.77146347623162,0,0,1,1.84,size,0
s201,learn,145,L13,learn,-2.63424967277899,-0.415358110318393,1,1,1,1.124,size,0
s201,learn,146,L6,learn,-4.03805215285124,-3.6653889577802,0,0,1,1.001,size,0
s201,learn,147,L11,learn,-7.28850576128638,-4.27296495284132,1,1,1,0.808,size,0
s201,learn,148,L3,learn,5.44104694192171,5.74675715206952,0,0,1,0.751,size,0
s201,learn,149,L2,learn,4.78850576128638,4.52296495284132,0,0,1,0.558,size,0
s201,learn,150,L10,learn,1.82525809607953,4.74224278073692,1,1,1,0.868,size,0
s201,learn,151,L19,learn,-0.62518818571043,2.03279251880948,1,1,1,1.038,size,0
s201,learn,152,L16,learn,-4.32525809607953,-4.49224278073692,0,0,1,0.983,size,0
s201,learn,153,L1,learn,-1.87481181428957,-1.78279251880948,0,0,1,0.825,size,0
s201,learn,154,L12,learn,0.88210011039243,4.02146347623162,1,1,1,2.671,size,0
s201,learn,155,L5,learn,1.53805215285124,3.9153889577802,1,1,1,1.023,size,0
s201,learn,156,L14,learn,-0.944278214366407,-0.885701689158013,0,1,0,0.949,size,0
s201,learn,157,L20,learn,-7.94104694192171,-5.49675715206952,1,1,1,0.641,size,0
s201,learn,158,L18,learn,3.05634619548501,2.73355920733567,0,0,1,0.703,size,0
s201,learn,159,L8,learn,1.1443518165071,0.928950000151332,0,0,1,1.04,size,0
s201,learn,160,L15,learn,-1.55572178563359,1.13570168915801,1,1,1,0.857,size,0
s201,learn,161,L16,learn,-4.32525809607953,-4.49224278073692,0,1,0,0.888,size,0
s201,learn,162,L13,learn,-2.63424967277899,-0.415358110318393,1,1,1,0.776,size,0
s201,learn,163,L18,learn,3.05634619548501,2.73355920733567,0,0,1,0.854,size,0
s201,learn,164,L7,learn,-3.38210011039243,-3.77146347623162,0,0,1,1.191,size,0
s201,learn,165,L17,learn,0.134249672778992,0.665358110318393,0,0,1,0.902,size,0
s201,learn,166,L4,learn,-3.6443518165071,-0.678950000151332,1,1,1,0.54,size,0
s201,learn,167,L1,learn,-1.87481181428957,-1.78279251880948,0,0,1,0.95,size,0
s201,learn,168,L5,learn,1.53805215285124,3.9153889577802,1,0,0,0.666,size,0
s201,learn,169,L9,learn,-5.55634619548501,-2.48355920733567,1,1,1,0.81,size,0
s201,learn,170,L20,learn,-7.94104694192171,-5.49675715206952,1,1,1,0.492,size,0
s201,learn,171,L14,learn,-0.944278214366407,-0.885701689158013,0,0,1,0.735,size,0
s201,learn,172,L2,learn,4.78850576128638,4.52296495284132,0,0,1,0.685,size,0
s201,learn,173,L6,learn,-4.03805215285124,-3.6653889577802,0,1,0,0.735,size,0
s201,learn,174,L3,learn,5.44104694192171,5.74675715206952,0,0,1,0.659,size,0
s201,learn,175,L8,learn,1.1443518165071,0.928950000151332,0,1,0,0.783,size,0
s201,learn,176,L10,learn,1.82525809607953,4.74224278073692,1,0,0,0.833,size,0
s201,learn,177,L19,learn,-0.62518818571043,2.03279251880948,1,0,0,0.756,size,0
s201,learn,178,L12,learn,0.88210011039243,4.02146347623162,1,0,0,0.472,size,0
s201,learn,179,L15,learn,-1.55572178563359,1.13570168915801,1,1,1,0.687,size,0
s201,learn,180,L11,learn,-7.28850576128638,-4.27296495284132,1,1,1,0.687,size,0
s201,learn,181,L5,learn,1.53805215285124,3.9153889577802,1,0,0,0.668,size,0
s201,learn,182,L11,learn,-7.28850576128638,-4.27296495284132,1,1,1,0.806,size,0
s201,learn,183,L18,learn,3.05634619548501,2.73355920733567,0,1,0,1.251,size,0
s201,learn,184,L1,learn,-1.87481181428957,-1.78279251880948,0,1,0,0.721,size,0
s201,learn,185,L3,learn,5.44104694192171,5.74675715206952,0,0,1,0.622,size,0
s201,learn,186,L20,learn,-7.94104694192171,-5.49675715206952,1,1,1,0.602,size,0
s201,learn,187,L13,learn,-2.63424967277899,-0.415358110318393,1,1,1,0.799,size,0
s201,learn,188,L6,learn,-4.03805215285124,-3.6653889577802,0,0,1,0.788,size,0
s201,learn,189,L7,learn,-3.38210011039243,-3.77146347623162,0,0,1,1.386,size,0
s201,learn,190,L9,learn,-5.55634619548501,-2.48355920733567,1,1,1,1.101,size,0
s201,learn,191,L14,learn,-0.944278214366407,-0.885701689158013,0,1,0,1.116,size,0
s201,learn,192,L2,learn,4.78850576128638,4.52296495284132,0,0,1,0.8,size,0
s201,learn,193,L19,learn,-0.62518818571043,2.03279251880948,1,1,1,0.784,size,0
s201,learn,194,L8,learn,1.1443518165071,0.928950000151332,0,1,0,0.636,size,0
s201,learn,195,L16,learn,-4.32525809607953,-4.49224278073692,0,1,0,0.669,size,0
s201,learn,196,L12,learn,0.88210011039243,4.02146347623162,1,0,0,0.55,size,0
s201,learn,197,L4,learn,-3.6443518165071,-0.678950000151332,1,1,1,0.691,size,0
s201,learn,198,L10,learn,1.82525809607953,4.74224278073692,1,1,1,0.719,size,0
s201,learn,199,L17,learn,0.134249672778992,0.665358110318393,0,0,1,1.087,size,0
s201,learn,200,L15,learn,-1.55572178563359,1.13570168915801,1,1,1,0.985,size,0
s201,learn,201,L11,learn,-7.28850576128638,-4.27296495284132,1,1,1,0.793,size,0
s201,learn,202,L20,learn,-7.94104694192171,-5.49675715206952,1,1,1,0.738,size,0
s201,learn,203,L1,learn,-1.87481181428957,-1.78279251880948,0,0,1,1.381,size,0
s201,learn,204,L2,learn,4.78850576128638,4.52296495284132,0,0,1,0.959,size,0
s201,learn,205,L8,learn,1.1443518165071,0.928950000151332,0,0,1,1.553,size,0
s201,learn,206,L3,learn,5.44104694192171,5.74675715206952,0,0,1,0.749,size,0
s201,learn,207,L14,learn,-0.944278214366407,-0.885701689158013,0,1,0,1.234,size,0
s201,learn,208,L13,learn,-2.63424967277899,-0.415358110318393,1,1,1,0.709,size,0
s201,learn,209,L15,learn,-1.55572178563359,1.13570168915801,1,0,0,1.268,size,0
s201,learn,210,L4,learn,-3.6443518165071,-0.678950000151332,1,1,1,0.74,size,0
s201,learn,211,L7,learn,-3.38210011039243,-3.77146347623162,0,0,1,1.756,size,0
s201,learn,212,L18,learn,3.05634619548501,2.73355920733567,0,0,1,0.872,size,0
s201,learn,213,L9,learn,-5.55634619548501,-2.48355920733567,1,1,1,0.809,size,0
s201,learn,214,L17,learn,0.134249672778992,0.665358110318393,0,0,1,0.788,size,0
s201,learn,215,L6,learn,-4.03805215285124,-3.6653889577802,0,1,0,1.419,size,0
s201,learn,216,L16,learn,-4.32525809607953,-4.49224278073692,0,0,1,0.539,size,0
s201,learn,217,L10,learn,1.82525809607953,4.74224278073692,1,0,0,0.634,size,0
s201,learn,218,L19,learn,-0.62518818571043,2.03279251880948,1,0,0,0.984,size,0
s201,learn,219,L12,learn,0.88210011039243,4.02146347623162,1,0,0,0.738,size,0
s201,learn,220,L5,learn,1.53805215285124,3.9153889577802,1,1,1,0.698,size,0
s201,learn,221,L16,learn,-4.32525809607953,-4.49224278073692,0,0,1,1.367,size,0
s201,learn,222,L9,learn,-5.55634619548501,-2.48355920733567,1,0,0,0.766,size,0
s201,learn,223,L20,learn,-7.94104694192171,-5.49675715206952,1,1,1,0.575,size,0
s201,learn,224,L12,learn,0.88210011039243,4.02146347623162,1,0,0,0.69,size,0
s201,learn,225,L18,learn,3.05634619548501,2.73355920733567,0,1,0,0.541,size,0
s201,learn,226,L14,learn,-0.944278214366407,-0.885701689158013,0,0,1,0.734,size,0
s201,learn,227,L6,learn,-4.03805215285124,-3.6653889577802,0,0,1,0.969,size,0
s201,learn,228,L5,learn,1.53805215285124,3.9153889577802,1,1,1,1.024,size,0
s201,learn,229,L8,learn,1.1443518165071,0.928950000151332,0,0,1,0.967,size,0
s201,learn,230,L19,learn,-0.62518818571043,2.03279251880948,1,1,1,0.734,size,0
s201,learn,231,L17,learn,0.134249672778992,0.665358110318393,0,0,1,0.668,size,0
s201,learn,232,L3,learn,5.44104694192171,5.74675715206952,0,0,1,0.67,size,0
s201,learn,233,L11,learn,-7.28850576128638,-4.27296495284132,1,1,1,0.643,size,0
s201,learn,234,L2,learn,4.78850576128638,4.52296495284132,0,0,1,1.149,size,0
s201,learn,235,L7,learn,-3.38210011039243,-3.77146347623162,0,0,1,0.81,size,0
s201,learn,236,L15,learn,-1.55572178563359,1.13570168915801,1,1,1,2.618,size,0
s201,learn,237,L1,learn,-1.87481181428957,-1.78279251880948,0,0,1,1.76,size,0
s201,learn,238,L13,learn,-2.63424967277899,-0.415358110318393,1,1,1,1.433,size,0
s201,learn,239,L10,learn,1.82525809607953,4.74224278073692,1,1,1,1.076,size,0
s201,learn,240,L4,learn,-3.6443518165071,-0.678950000151332,1,1,1,1.343,size,0
s201,learn,241,L5,learn,1.53805215285124,3.9153889577802,1,1,1,1.017,size,0
s201,learn,242,L19,learn,-0.62518818571043,2.03279251880948,1,1,1,0.798,size,0
s201,learn,243,L16,learn,-4.32525809607953,-4.49224278073692,0,0,1,1.001,size,0
s201,learn,244,L18,learn,3.05634619548501,2.73355920733567,0,1,0,1.074,size,0
s201,learn,245,L13,learn,-2.63424967277899,-0.415358110318393,1,1,1,1.252,size,0
s201,learn,246,L2,learn,4.78850576128638,4.52296495284132,0,1,0,1.001,size,0
s201,learn,247,L17,learn,0.134249672778992,0.665358110318393,0,0,1,0.792,size,0
s201,learn,248,L11,learn,-7.28850576128638,-4.27296495284132,1,1,1,0.636,size,0
s201,learn,249,L10,learn,1.82525809607953,4.74224278073692,1,0,0,1.408,size,0
s201,learn,250,L9,learn,-5.55634619548501,-2.48355920733567,1,0,0,0.938,size,0
s201,learn,251,L6,learn,-4.03805215285124,-3.6653889577802,0,0,1,1.35,size,0
s201,learn,252,L4,learn,-3.6443518165071,-0.678950000151332,1,1,1,1.326,size,0
s201,learn,253,L12,learn,0.88210011039243,4.02146347623162,1,1,1,1.05,size,0
s201,learn,254,L7,learn,-3.38210011039243,-3.77146347623162,0,0,1,2.084,size,0
s201,learn,255,L20,learn,-7.94104694192171,-5.49675715206952,1,1,1,0.715,size,0
s201,learn,256,L15,learn,-1.55572178563359,1.13570168915801,1,0,0,1.555,size,0
s201,learn,257,L8,learn,1.1443518165071,0.928950000151332,0,0,1,1.053,size,0
s201,learn,258,L3,learn,5.44104694192171,5.74675715206952,0,0,1,0.807,size,0
s201,learn,259,L1,learn,-1.87481181428957,-1.78279251880948,0,0,1,1.876,size,0
s201,learn,260,L14,learn,-0.944278214366407,-0.885701689158013,0,0,1,1.686,size,0
s201,learn,261,L12,learn,0.88210011039243,4.02146347623162,1,1,1,1.269,size,0
s201,learn,262,L4,learn,-3.6443518165071,-0.678950000151332,1,1,1,1.288,size,0
s201,learn,263,L16,learn,-4.32525809607953,-4.49224278073692,0,0,1,1.07,size,0
s201,learn,264,L7,learn,-3.38210011039243,-3.77146347623162,0,0,1,0.837,size,0
s201,learn,265,L17,learn,0.134249672778992,0.665358110318393,0,0,1,0.87,size,0
s201,learn,266,L18,learn,3.05634619548501,2.73355920733567,0,1,0,1.033,size,0
s201,learn,267,L14,learn,-0.944278214366407,-0.885701689158013,0,0,1,1.342,size,0
s201,learn,268,L1,learn,-1.87481181428957,-1.78279251880948,0,0,1,0.867,size,0
s201,learn,269,L19,learn,-0.62518818571043,2.03279251880948,1,0,0,2.67,size,0
s201,learn,270,L15,learn,-1.55572178563359,1.13570168915801,1,1,1,1.346,size,0
s201,learn,271,L5,learn,1.53805215285124,3.9153889577802,1,1,1,1.219,size,0
s201,learn,272,L2,learn,4.78850576128638,4.52296495284132,0,0,1,0.913,size,0
s201,learn,273,L3,learn,5.44104694192171,5.74675715206952,0,0,1,0.622,size,0
s201,learn,274,L9,learn,-5.55634619548501,-2.48355920733567,1,1,1,0.63,size,0
s201,learn,275,L10,learn,1.82525809607953,4.74224278073692,1,0,0,1.809,size,0
s201,learn,276,L11,learn,-7.28850576128638,-4.27296495284132,1,1,1,0.708,size,0
s201,learn,277,L8,learn,1.1443518165071,0.928950000151332,0,0,1,2.459,size,0
s201,learn,278,L13,learn,-2.63424967277899,-0.415358110318393,1,1,1,0.969,size,0
s201,learn,279,L20,learn,-7.94104694192171,-5.49675715206952,1,1,1,0.533,size,0
s201,learn,280,L6,learn,-4.03805215285124,-3.6653889577802,0,1,0,1.45,size,0
s201,learn,281,L1,learn,-1.87481181428957,-1.78279251880948,0,0,1,1.217,size,0
s201,learn,282,L3,learn,5.44104694192171,5.74675715206952,0,0,1,0.683,size,0
s201,learn,283,L12,learn,0.88210011039243,4.02146347623162,1,0,0,0.974,size,0
s201,learn,284,L16,learn,-4.32525809607953,-4.49224278073692,0,1,0,2.486,size,0
s201,learn,285,L7,learn,-3.38210011039243,-3.77146347623162,0,0,1,1.903,size,0
s201,learn,286,L19,learn,-0.62518818571043,2.03279251880948,1,0,0,1.189,size,0
s201,learn,287,L11,learn,-7.28850576128638,-4.27296495284132,1,1,1,0.683,size,0
s201,learn,288,L6,learn,-4.03805215285124,-3.6653889577802,0,0,1,1.434,size,0
s201,learn,289,L15,learn,-1.55572178563359,1.13570168915801,1,0,0,1.467,size,0
s201,learn,290,L2,learn,4.78850576128638,4.52296495284132,0,0,1,0.668,size,0
s201,learn,291,L10,learn,1.82525809607953,4.74224278073692,1,0,0,4.368,size,0
s201,learn,292,L5,learn,1.53805215285124,3.9153889577802,1,1,1,0.551,size,0
s201,learn,293,L4,learn,-3.6443518165071,-0.678950000151332,1,1,1,0.886,size,0
s201,learn,294,L17,learn,0.134249672778992,0.665358110318393,0,0,1,1.034,size,0
s201,learn,295,L20,learn,-7.94104694192171,-5.49675715206952,1,1,1,0.64,size,0
s201,learn,296,L14,learn,-0.944278214366407,-0.885701689158013,0,1,0,1.084,size,0
s201,learn,297,L18,learn,3.05634619548501,2.73355920733567,0,1,0,0.859,size,0
s201,learn,298,L13,learn,-2.63424967277899,-0.415358110318393,1,1,1,0.915,size,0
s201,learn,299,L9,learn,-5.55634619548501,-2.48355920733567,1,0,0,0.936,size,0
s201,learn,300,L8,learn,1.1443518165071,0.928950000151332,0,0,1,0.787,size,0
s201,learn,301,L10,learn,1.82525809607953,4.74224278073692,1,0,0,3.439,size,0
s201,learn,302,L8,learn,1.1443518165071,0.928950000151332,0,0,1,1.517,size,0
s201,learn,303,L6,learn,-4.03805215285124,-3.6653889577802,0,1,0,0.718,size,0
s201,learn,304,L12,learn,0.88210011039243,4.02146347623162,1,1,1,2.109,size,0
s201,learn,305,L16,learn,-4.32525809607953,-4.49224278073692,0,1,0,1.321,size,0
s201,learn,306,L19,learn,-0.62518818571043,2.03279251880948,1,1,1,0.94,size,0
s201,learn,307,L5,learn,1.53805215285124,3.9153889577802,1,0,0,1.258,size,0
s201,learn,308,L3,learn,5.44104694192171,5.74675715206952,0,1,0,0.352,size,0
s201,learn,309,L15,learn,-1.55572178563359,1.13570168915801,1,1,1,0.15,size,0
s201,learn,310,L17,learn,0.134249672778992,0.665358110318393,0,1,0,0.035,size,0
s201,learn,311,L18,learn,3.05634619548501,2.73355920733567,0,0,1,0.023,size,0
s201,learn,312,L2,learn,4.78850576128638,4.52296495284132,0,1,0,0.142,size,0
s201,learn,313,L13,learn,-2.63424967277899,-0.415358110318393,1,1,1,0.612,size,0
s201,learn,314,L11,learn,-7.28850576128638,-4.27296495284132,1,1,1,0.594,size,0
s201,learn,315,L20,learn,-7.94104694192171,-5.49675715206952,1,1,1,0.479,size,0
s201,learn,316,L7,learn,-3.38210011039243,-3.77146347623162,0,0,1,1.726,size,0
s201,learn,317,L4,learn,-3.6443518165071,-0.678950000151332,1,1,1,0.801,size,0
s201,learn,318,L9,learn,-5.55634619548501,-2.48355920733567,1,0,0,1.068,size,0
s201,learn,319,L1,learn,-1.87481181428957,-1.78279251880948,0,1,0,1.057,size,0
s201,learn,320,L14,learn,-0.944278214366407,-0.885701689158013,0,1,0,0.651,size,0
s201,learn,321,L5,learn,1.53805215285124,3.9153889577802,1,0,0,0.433,size,0
s201,learn,322,L16,learn,-4.32525809607953,-4.49224278073692,0,0,1,0.626,size,0
s201,learn,323,L1,learn,-1.87481181428957,-1.78279251880948,0,0,1,0.621,size,0
s201,learn,324,L15,learn,-1.55572178563359,1.13570168915801,1,0,0,0.872,size,0
s201,learn,325,L6,learn,-4.03805215285124,-3.6653889577802,0,1,0,0.8,size,0
s201,learn,326,L13,learn,-2.63424967277899,-0.415358110318393,1,1,1,0.688,size,0
s201,learn,327,L20,learn,-7.94104694192171,-5.49675715206952,1,1,1,0.598,size,0
s201,learn,328,L18,learn,3.05634619548501,2.73355920733567,0,0,1,0.537,size,0
s201,learn,329,L9,learn,-5.55634619548501,-2.48355920733567,1,1,1,0.49,size,0
s201,learn,330,L10,learn,1.82525809607953,4.74224278073692,1,1,1,0.916,size,0
s201,learn,331,L3,learn,5.44104694192171,5.74675715206952,0,0,1,0.811,size,0
s201,learn,332,L17,learn,0.134249672778992,0.665358110318393,0,1,0,1.111,size,0
s201,learn,333,L14,learn,-0.944278214366407,-0.885701689158013,0,1,0,0.619,size,0
s201,learn,334,L19,learn,-0.62518818571043,2.03279251880948,1,1,1,0.642,size,0
s201,learn,335,L7,learn,-3.38210011039243,-3.77146347623162,0,1,0,0.721,size,0
s201,learn,336,L11,learn,-7.28850576128638,-4.27296495284132,1,1,1,0.599,size,0
s201,learn,337,L2,learn,4.78850576128638,4.52296495284132,0,0,1,0.567,size,0
s201,learn,338,L4,learn,-3.6443518165071,-0.678950000151332,1,1,1,0.624,size,0
s201,learn,339,L12,learn,0.88210011039243,4.02146347623162,1,1,1,0.766,size,0
s201,learn,340,L8,learn,1.1443518165071,0.928950000151332,0,1,0,0.687,size,0
s201,learn,341,L19,learn,-0.62518818571043,2.03279251880948,1,0,0,0.55,size,0
s201,learn,342,L10,learn,1.82525809607953,4.74224278073692,1,0,0,0.801,size,0
s201,learn,343,L6,learn,-4.03805215285124,-3.6653889577802,0,1,0,2.733,size,0
s201,learn,344,L11,learn,-7.28850576128638,-4.27296495284132,1,1,1,0.633,size,0
s201,learn,345,L4,learn,-3.6443518165071,-0.678950000151332,1,1,1,0.877,size,0
s201,learn,346,L18,learn,3.05634619548501,2.73355920733567,0,0,1,1.101,size,0
s201,learn,347,L2,learn,4.78850576128638,4.52296495284132,0,0,1,0.551,size,0
s201,learn,348,L7,learn,-3.38210011039243,-3.77146347623162,0,0,1,5.622,size,0
s201,learn,349,L8,learn,1.1443518165071,0.928950000151332,0,0,1,1.354,size,0
s201,learn,350,L1,learn,-1.87481181428957,-1.78279251880948,0,0,1,3.125,size,0
s201,learn,351,L20,learn,-7.94104694192171,-5.49675715206952,1,1,1,0.733,size,0
s201,learn,352,L13,learn,-2.63424967277899,-0.415358110318393,1,1,1,0.968,size,0
s201,learn,353,L17,learn,0.134249672778992,0.665358110318393,0,0,1,2.267,size,0
s201,learn,354,L15,learn,-1.55572178563359,1.13570168915801,1,1,1,1.123,size,0
s201,learn,355,L9,learn,-5.55634619548501,-2.48355920733567,1,1,1,1.717,size,0
s201,learn,356,L16,learn,-4.32525809607953,-4.49224278073692,0,0,1,1.668,size,0
s201,learn,357,L12,learn,0.88210011039243,4.02146347623162,1,1,1,1.216,size,0
s201,learn,358,L14,learn,-0.944278214366407,-0.885701689158013,0,0,1,2.505,size,0
s201,learn,359,L5,learn,1.53805215285124,3.9153889577802,1,1,1,1.526,size,0
s201,learn,360,L3,learn,5.44104694192171,5.74675715206952,0,0,1,0.926,size,0
s201,learn,361,L2,learn,4.78850576128638,4.52296495284132,0,0,1,0.656,size,0
s201,learn,362,L8,learn,1.1443518165071,0.928950000151332,0,0,1,3.088,size,0
s201,learn,363,L19,learn,-0.62518818571043,2.03279251880948,1,1,1,1.083,size,0
s201,learn,364,L12,learn,0.88210011039243,4.02146347623162,1,1,1,1.691,size,0
s201,learn,365,L15,learn,-1.55572178563359,1.13570168915801,1,0,0,3.687,size,0
s201,learn,366,L11,learn,-7.28850576128638,-4.27296495284132,1,1,1,0.707,size,0
s201,learn,367,L16,learn,-4.32525809607953,-4.49224278073692,0,1,0,1.285,size,0
s201,learn,368,L5,learn,1.53805215285124,3.9153889577802,1,0,0,1.317,size,0
s201,learn,369,L6,learn,-4.03805215285124,-3.6653889577802,0,0,1,0.888,size,0
s201,learn,370,L17,learn,0.134249672778992,0.665358110318393,0,0,1,0.75,size,0
s201,learn,371,L20,learn,-7.94104694192171,-5.49675715206952,1,1,1,0.618,size,0
s201,learn,372,L7,learn,-3.38210011039243,-3.77146347623162,0,1,0,1.1,size,0
s201,learn,373,L18,learn,3.05634619548501,2.73355920733567,0,0,1,0.755,size,0
s201,learn,374,L10,learn,1.82525809607953,4.74224278073692,1,0,0,0.942,size,0
s201,learn,375,L4,learn,-3.6443518165071,-0.678950000151332,1,1,1,0.769,size,0
s201,learn,376,L9,learn,-5.55634619548501,-2.48355920733567,1,1,1,0.572,size,0
s201,learn,377,L14,learn,-0.944278214366407,-0.885701689158013,0,0,1,1.102,size,0
s201,learn,378,L3,learn,5.44104694192171,5.74675715206952,0,0,1,0.768,size,0
s201,learn,379,L1,learn,-1.87481181428957,-1.78279251880948,0,0,1,1.053,size,0
s201,learn,380,L13,learn,-2.63424967277899,-0.415358110318393,1,1,1,1.036,size,0
s201,learn,381,L6,learn,-4.03805215285124,-3.6653889577802,0,0,1,0.805,size,0
s201,learn,382,L9,learn,-5.55634619548501,-2.48355920733567,1,1,1,0.601,size,0
s201,learn,383,L3,learn,5.44104694192171,5.74675715206952,0,0,1,0.64,size,0
s201,learn,384,L5,learn,1.53805215285124,3.9153889577802,1,1,1,0.839,size,0
s201,learn,385,L20,learn,-7.94104694192171,-5.49675715206952,1,1,1,0.693,size,0
s201,learn,386,L2,learn,4.78850576128638,4.52296495284132,0,0,1,1.492,size,0
s201,learn,387,L19,learn,-0.62518818571043,2.03279251880948,1,1,1,0.685,size,0
s201,learn,388,L18,learn,3.05634619548501,2.73355920733567,0,0,1,1.352,size,0
s201,learn,389,L1,learn,-1.87481181428957,-1.78279251880948,0,0,1,1.1,size,0
s201,learn,390,L14,learn,-0.944278214366407,-0.885701689158013,0,0,1,0.978,size,0
s201,learn,391,L16,learn,-4.32525809607953,-4.49224278073692,0,0,1,2.443,size,0
s201,learn,392,L12,learn,0.88210011039243,4.02146347623162,1,1,1,1.268,size,0
s201,learn,393,L4,learn,-3.6443518165071,-0.678950000151332,1,1,1,1.427,size,0
s201,learn,394,L13,learn,-2.63424967277899,-0.415358110318393,1,1,1,0.724,size,0
s201,learn,395,L10,learn,1.82525809607953,4.74224278073692,1,0,0,1.254,size,0
s201,learn,396,L11,learn,-7.28850576128638,-4.27296495284132,1,1,1,0.61,size,0
s201,learn,397,L15,learn,-1.55572178563359,1.13570168915801,1,1,1,1.108,size,0
s201,learn,398,L17,learn,0.134249672778992,0.665358110318393,0,0,1,0.951,size,0
s201,learn,399,L8,learn,1.1443518165071,0.928950000151332,0,0,1,0.751,size,0
s201,learn,400,L7,learn,-3.38210011039243,-3.77146347623162,0,1,0,1.087,size,0
s201,learn,401,L3,learn,5.44104694192171,5.74675715206952,0,0,1,0.952,size,0
s201,learn,402,L20,learn,-7.94104694192171,-5.49675715206952,1,1,1,0.799,size,0
s201,learn,403,L1,learn,-1.87481181428957,-1.78279251880948,0,0,1,1.323,size,0
s201,learn,404,L6,learn,-4.03805215285124,-3.6653889577802,0,0,1,1.2,size,0
s201,learn,405,L14,learn,-0.944278214366407,-0.885701689158013,0,1,0,1.068,size,0
s201,learn,406,L2,learn,4.78850576128638,4.52296495284132,0,0,1,0.801,size,0
s201,learn,407,L12,learn,0.88210011039243,4.02146347623162,1,1,1,0.724,size,0
s201,learn,408,L11,learn,-7.28850576128638,-4.27296495284132,1,1,1,0.643,size,0
s201,learn,409,L5,learn,1.53805215285124,3.9153889577802,1,0,0,0.938,size,0
s201,learn,410,L18,learn,3.05634619548501,2.73355920733567,0,0,1,1.626,size,0
s201,learn,411,L8,learn,1.1443518165071,0.928950000151332,0,0,1,0.94,size,0
s201,learn,412,L10,learn,1.82525809607953,4.74224278073692,1,1,1,0.869,size,0
s201,learn,413,L7,learn,-3.38210011039243,-3.77146347623162,0,1,0,2.39,size,0
s201,learn,414,L17,learn,0.134249672778992,0.665358110318393,0,0,1,0.843,size,0
s201,learn,415,L13,learn,-2.63424967277899,-0.415358110318393,1,1,1,0.85,size,0
s201,learn,416,L4,learn,-3.6443518165071,-0.678950000151332,1,1,1,0.72,size,0
s201,learn,417,L9,learn,-5.55634619548501,-2.48355920733567,1,0,0,1.118,size,0
s201,learn,418,L19,learn,-0.62518818571043,2.03279251880948,1,1,1,1.309,size,0
s201,learn,419,L16,learn,-4.32525809607953,-4.49224278073692,0,0,1,0.924,size,0
s201,learn,420,L15,learn,-1.55572178563359,1.13570168915801,1,0,0,1.686,size,0
s201,learn,421,L10,learn,1.82525809607953,4.74224278073692,1,0,0,0.699,size,0
s201,learn,422,L4,learn,-3.6443518165071,-0.678950000151332,1,1,1,3.333,size,0
s201,learn,423,L3,learn,5.44104694192171,5.74675715206952,0,0,1,0.719,size,0
s201,learn,424,L16,learn,-4.32525809607953,-4.49224278073692,0,0,1,1.242,size,0
s201,learn,425,L17,learn,0.134249672778992,0.665358110318393,0,0,1,0.85,size,0
s201,learn,426,L15,learn,-1.55572178563359,1.13570168915801,1,1,1,1.061,size,0
s201,learn,427,L14,learn,-0.944278214366407,-0.885701689158013,0,0,1,0.903,size,0
s201,learn,428,L18,learn,3.05634619548501,2.73355920733567,0,0,1,0.843,size,0
s201,learn,429,L12,learn,0.88210011039243,4.02146347623162,1,1,1,0.716,size,0
s201,learn,430,L20,learn,-7.94104694192171,-5.49675715206952,1,1,1,0.658,size,0
s201,learn,431,L11,learn,-7.28850576128638,-4.27296495284132,1,1,1,0.572,size,0
s201,learn,432,L13,learn,-2.63424967277899,-0.415358110318393,1,1,1,0.806,size,0
s201,learn,433,L9,learn,-5.55634619548501,-2.48355920733567,1,0,0,0.718,size,0
s201,learn,434,L8,learn,1.1443518165071,0.928950000151332,0,0,1,0.769,size,0
s201,learn,435,L2,learn,4.78850576128638,4.52296495284132,0,0,1,1.049,size,0
s201,learn,436,L19,learn,-0.62518818571043,2.03279251880948,1,1,1,0.709,size,0
s201,learn,437,L7,learn,-3.38210011039243,-3.77146347623162,0,0,1,1.125,size,0
s201,learn,438,L1,learn,-1.87481181428957,-1.78279251880948,0,0,1,0.858,size,0
s201,learn,439,L6,learn,-4.03805215285124,-3.6653889577802,0,1,0,1.483,size,0
s201,learn,440,L5,learn,1.53805215285124,3.9153889577802,1,1,1,1.217,size,0
s201,learn,441,L7,learn,-3.38210011039243,-3.77146347623162,0,0,1,0.968,size,0
s201,learn,442,L14,learn,-0.944278214366407,-0.885701689158013,0,1,0,1.258,size,0
s201,learn,443,L20,learn,-7.94104694192171,-5.49675715206952,1,1,1,0.616,size,0
s201,learn,444,L2,learn,4.78850576128638,4.52296495284132,0,0,1,0.735,size,0
s201,learn,445,L11,learn,-7.28850576128638,-4.27296495284132,1,1,1,0.684,size,0
s201,learn,446,L16,learn,-4.32525809607953,-4.49224278073692,0,1,0,0.85,size,0
s201,learn,447,L3,learn,5.44104694192171,5.74675715206952,0,0,1,0.719,size,0
s201,learn,448,L4,learn,-3.6443518165071,-0.678950000151332,1,1,1,0.802,size,0
s201,learn,449,L5,learn,1.53805215285124,3.9153889577802,1,1,1,0.95,size,0
s201,learn,450,L17,learn,0.134249672778992,0.665358110318393,0,0,1,0.965,size,0
s201,learn,451,L18,learn,3.05634619548501,2.73355920733567,0,1,0,2.901,size,0
s201,learn,452,L13,learn,-2.63424967277899,-0.415358110318393,1,1,1,1.077,size,0
s201,learn,453,L6,learn,-4.03805215285124,-3.6653889577802,0,0,1,0.92,size,0
s201,learn,454,L1,learn,-1.87481181428957,-1.78279251880948,0,0,1,0.883,size,0
s201,learn,455,L9,learn,-5.55634619548501,-2.48355920733567,1,1,1,0.775,size,0
s201,learn,456,L8,learn,1.1443518165071,0.928950000151332,0,0,1,1.072,size,0
s201,learn,457,L10,learn,1.82525809607953,4.74224278073692,1,1,1,1.089,size,0
s201,learn,458,L19,learn,-0.62518818571043,2.03279251880948,1,1,1,1.718,size,0
s201,learn,459,L12,learn,0.88210011039243,4.02146347623162,1,1,1,1.217,size,0
s201,learn,460,L15,learn,-1.55572178563359,1.13570168915801,1,0,0,1.006,size,0
s201,learn,461,L6,learn,-4.03805215285124,-3.6653889577802,0,0,1,1.051,size,0
s201,learn,462,L12,learn,0.88210011039243,4.02146347623162,1,1,1,0.839,size,0
s201,learn,463,L7,learn,-3.38210011039243,-3.77146347623162,0,0,1,1.14,size,0
s201,learn,464,L15,learn,-1.55572178563359,1.13570168915801,1,0,0,0.973,size,0
s201,learn,465,L3,learn,5.44104694192171,5.74675715206952,0,0,1,0.701,size,0
s201,learn,466,L18,learn,3.05634619548501,2.73355920733567,0,1,0,0.836,size,0
s201,learn,467,L8,learn,1.1443518165071,0.928950000151332,0,0,1,0.998,size,0
s201,learn,468,L17,learn,0.134249672778992,0.665358110318393,0,0,1,0.685,size,0
s201,learn,469,L16,learn,-4.32525809607953,-4.49224278073692,0,0,1,3.142,size,0
s201,learn,470,L9,learn,-5.55634619548501,-2.48355920733567,1,1,1,0.698,size,0
s201,learn,471,L2,learn,4.78850576128638,4.52296495284132,0,0,1,0.652,size,0
s201,learn,472,L19,learn,-0.62518818571043,2.03279251880948,1,1,1,1.005,size,0
s201,learn,473,L13,learn,-2.63424967277899,-0.415358110318393,1,1,1,0.937,size,0
s201,learn,474,L5,learn,1.53805215285124,3.9153889577802,1,1,1,1.05,size,0
s201,learn,475,L10,learn,1.82525809607953,4.74224278073692,1,1,1,0.822,size,0
s201,learn,476,L11,learn,-7.28850576128638,-4.27296495284132,1,1,1,0.632,size,0
s201,learn,477,L1,learn,-1.87481181428957,-1.78279251880948,0,0,1,1.017,size,0
s201,learn,478,L14,learn,-0.944278214366407,-0.885701689158013,0,0,1,1.157,size,0
s201,learn,479,L20,learn,-7.94104694192171,-5.49675715206952,1,1,1,0.625,size,0
s201,learn,480,L4,learn,-3.6443518165071,-0.678950000151332,1,1,1,0.928,size,0
s201,learn,481,L2,learn,4.78850576128638,4.52296495284132,0,0,1,0.87,size,0
s201,learn,482,L17,learn,0.134249672778992,0.665358110318393,0,0,1,0.8,size,0
s201,learn,483,L10,learn,1.82525809607953,4.74224278073692,1,1,1,0.835,size,0
s201,learn,484,L8,learn,1.1443518165071,0.928950000151332,0,0,1,1.225,size,0
s201,learn,485,L11,learn,-7.28850576128638,-4.27296495284132,1,1,1,0.601,size,0
s201,learn,486,L12,learn,0.88210011039243,4.02146347623162,1,1,1,0.843,size,0
s201,learn,487,L9,learn,-5.55634619548501,-2.48355920733567,1,1,1,1.568,size,0
s201,learn,488,L14,learn,-0.944278214366407,-0.885701689158013,0,0,1,4.043,size,0
s201,learn,489,L16,learn,-4.32525809607953,-4.49224278073692,0,1,0,0.909,size,0
s201,learn,490,L3,learn,5.44104694192171,5.74675715206952,0,0,1,0.693,size,0
s201,learn,491,L1,learn,-1.87481181428957,-1.78279251880948,0,0,1,2.15,size,0
s201,learn,492,L19,learn,-0.62518818571043,2.03279251880948,1,1,1,0.956,size,0
s201,learn,493,L7,learn,-3.38210011039243,-3.77146347623162,0,0,1,0.768,size,0
s201,learn,494,L20,learn,-7.94104694192171,-5.49675715206952,1,1,1,0.661,size,0
s201,learn,495,L6,learn,-4.03805215285124,-3.6653889577802,0,0,1,1.74,size,0
s201,learn,496,L18,learn,3.05634619548501,2.73355920733567,0,0,1,2.226,size,0
s201,learn,497,L15,learn,-1.55572178563359,1.13570168915801,1,0,0,1.374,size,0
s201,learn,498,L13,learn,-2.63424967277899,-0.415358110318393,1,1,1,0.707,size,0
s201,learn,499,L5,learn,1.53805215285124,3.9153889577802,1,1,1,1.008,size,0
s201,learn,500,L4,learn,-3.6443518165071,-0.678950000151332,1,1,1,1.106,size,0
s201,learn,501,L11,learn,-7.28850576128638,-4.27296495284132,1,1,1,0.806,size,0
s201,learn,502,L8,learn,1.1443518165071,0.928950000151332,0,0,1,0.92,size,0
s201,learn,503,L14,learn,-0.944278214366407,-0.885701689158013,0,1,0,1.182,size,0
s201,learn,504,L9,learn,-5.55634619548501,-2.48355920733567,1,1,1,0.654,size,0
s201,learn,505,L18,learn,3.05634619548501,2.73355920733567,0,0,1,1.842,size,0
s201,learn,506,L16,learn,-4.32525809607953,-4.49224278073692,0,0,1,1.326,size,0
s201,learn,507,L10,learn,1.82525809607953,4.74224278073692,1,1,1,0.977,size,0
s201,learn,508,L2,learn,4.78850576128638,4.52296495284132,0,0,1,0.771,size,0
s201,learn,509,L17,learn,0.134249672778992,0.665358110318393,0,0,1,0.868,size,0
s201,learn,510,L5,learn,1.53805215285124,3.9153889577802,1,1,1,0.927,size,0
s201,learn,511,L6,learn,-4.03805215285124,-3.6653889577802,0,0,1,1.573,size,0
s201,learn,512,L19,learn,-0.62518818571043,2.03279251880948,1,1,1,0.983,size,0
s201,learn,513,L15,learn,-1.55572178563359,1.13570168915801,1,0,0,1,size,0
s201,learn,514,L3,learn,5.44104694192171,5.74675715206952,0,0,1,0.657,size,0
s201,learn,515,L20,learn,-7.94104694192171,-5.49675715206952,1,1,1,0.685,size,0
s201,learn,516,L12,learn,0.88210011039243,4.02146347623162,1,1,1,0.761,size,0
s201,learn,517,L7,learn,-3.38210011039243,-3.77146347623162,0,0,1,1.433,size,0
s201,learn,518,L4,learn,-3.6443518165071,-0.678950000151332,1,1,1,0.833,size,0
s201,learn,519,L1,learn,-1.87481181428957,-1.78279251880948,0,0,1,1.018,size,0
s201,learn,520,L13,learn,-2.63424967277899,-0.415358110318393,1,1,1,0.851,size,0
s201,learn,521,L16,learn,-4.32525809607953,-4.49224278073692,0,1,0,1.023,size,0
s201,learn,522,L5,learn,1.53805215285124,3.9153889577802,1,1,1,0.934,size,0
s201,learn,523,L1,learn,-1.87481181428957,-1.78279251880948,0,0,1,0.74,size,0
s201,learn,524,L13,learn,-2.63424967277899,-0.415358110318393,1,1,1,0.759,size,0
s201,learn,525,L2,learn,4.78850576128638,4.52296495284132,0,0,1,0.663,size,0
s201,learn,526,L12,learn,0.88210011039243,4.02146347623162,1,1,1,0.752,size,0
s201,learn,527,L3,learn,5.44104694192171,5.74675715206952,0,0,1,0.707,size,0
s201,learn,528,L18,learn,3.05634619548501,2.73355920733567,0,1,0,0.784,size,0
s201,learn,529,L20,learn,-7.94104694192171,-5.49675715206952,1,1,1,0.586,size,0
s201,learn,530,L7,learn,-3.38210011039243,-3.77146347623162,0,0,1,0.985,size,0
s201,learn,531,L17,learn,0.134249672778992,0.665358110318393,0,0,1,0.851,size,0
s201,learn,532,L9,learn,-5.55634619548501,-2.48355920733567,1,1,1,0.67,size,0
s201,learn,533,L11,learn,-7.28850576128638,-4.27296495284132,1,1,1,0.683,size,0
s201,learn,534,L10,learn,1.82525809607953,4.74224278073692,1,1,1,1.125,size,0
s201,learn,535,L15,learn,-1.55572178563359,1.13570168915801,1,0,0,0.868,size,0
s201,learn,536,L8,learn,1.1443518165071,0.928950000151332,0,0,1,0.703,size,0
s201,learn,537,L6,learn,-4.03805215285124,-3.6653889577802,0,0,1,1.067,size,0
s201,learn,538,L14,learn,-0.944278214366407,-0.885701689158013,0,1,0,1.137,size,0
s201,learn,539,L19,learn,-0.62518818571043,2.03279251880948,1,0,0,0.844,size,0
s201,learn,540,L4,learn,-3.6443518165071,-0.678950000151332,1,1,1,0.767,size,0
s201,learn,541,L15,learn,-1.55572178563359,1.13570168915801,1,0,0,1.101,size,0
s201,learn,542,L13,learn,-2.63424967277899,-0.415358110318393,1,1,1,0.699,size,0
s201,learn,543,L3,learn,5.44104694192171,5.74675715206952,0,0,1,0.736,size,0
s201,learn,544,L5,learn,1.53805215285124,3.9153889577802,1,1,1,0.839,size,0
s201,learn,545,L19,learn,-0.62518818571043,2.03279251880948,1,1,1,0.676,size,0
s201,learn,546,L2,learn,4.78850576128638,4.52296495284132,0,0,1,0.909,size,0
s201,learn,547,L12,learn,0.88210011039243,4.02146347623162,1,1,1,0.756,size,0
s201,learn,548,L17,learn,0.134249672778992,0.665358110318393,0,0,1,1.036,size,0
s201,learn,549,L7,learn,-3.38210011039243,-3.77146347623162,0,0,1,1.004,size,0
s201,learn,550,L20,learn,-7.94104694192171,-5.49675715206952,1,1,1,0.652,size,0
s201,learn,551,L14,learn,-0.944278214366407,-0.885701689158013,0,0,1,1.819,size,0
s201,learn,552,L9,learn,-5.55634619548501,-2.48355920733567,1,1,1,1.3,size,0
s201,learn,553,L18,learn,3.05634619548501,2.73355920733567,0,0,1,2.219,size,0
s201,learn,554,L16,learn,-4.32525809607953,-4.49224278073692,0,0,1,1.872,size,0
s201,learn,555,L10,learn,1.82525809607953,4.74224278073692,1,1,1,1.235,size,0
s201,learn,556,L4,learn,-3.6443518165071,-0.678950000151332,1,1,1,2.051,size,0
s201,learn,557,L6,learn,-4.03805215285124,-3.6653889577802,0,0,1,1.917,size,0
s201,learn,558,L8,learn,1.1443518165071,0.928950000151332,0,1,0,3.22,size,0
s201,learn,559,L11,learn,-7.28850576128638,-4.27296495284132,1,1,1,0.669,size,0
s201,learn,560,L1,learn,-1.87481181428957,-1.78279251880948,0,0,1,0.952,size,0
s201,learn,561,L19,learn,-0.62518818571043,2.03279251880948,1,1,1,1.537,size,0
s201,learn,562,L9,learn,-5.55634619548501,-2.48355920733567,1,1,1,1.232,size,0
s201,learn,563,L16,learn,-4.32525809607953,-4.49224278073692,0,0,1,0.884,size,0
s201,learn,564,L14,learn,-0.944278214366407,-0.885701689158013,0,0,1,2.605,size,0
s201,learn,565,L13,learn,-2.63424967277899,-0.415358110318393,1,1,1,0.85,size,0
s201,learn,566,L3,learn,5.44104694192171,5.74675715206952,0,0,1,0.825,size,0
s201,learn,567,L1,learn,-1.87481181428957,-1.78279251880948,0,0,1,1.122,size,0
s201,learn,568,L8,learn,1.1443518165071,0.928950000151332,0,1,0,2.869,size,0
s201,learn,569,L4,learn,-3.6443518165071,-0.678950000151332,1,1,1,0.708,size,0
s201,learn,570,L11,learn,-7.28850576128638,-4.27296495284132,1,1,1,0.685,size,0
s201,learn,571,L18,learn,3.05634619548501,2.73355920733567,0,0,1,1.167,size,0
s201,learn,572,L17,learn,0.134249672778992,0.665358110318393,0,0,1,0.804,size,0
s201,learn,573,L10,learn,1.82525809607953,4.74224278073692,1,1,1,1.016,size,0
s201,learn,574,L15,learn,-1.55572178563359,1.13570168915801,1,1,1,1.792,size,0
s201,learn,575,L6,learn,-4.03805215285124,-3.6653889577802,0,1,0,1.524,size,0
s201,learn,576,L2,learn,4.78850576128638,4.52296495284132,0,0,1,0.654,size,0
s201,learn,577,L5,learn,1.53805215285124,3.9153889577802,1,1,1,1.617,size,0
s201,learn,578,L20,learn,-7.94104694192171,-5.49675715206952,1,1,1,0.587,size,0
s201,learn,579,L7,learn,-3.38210011039243,-3.77146347623162,0,0,1,0.983,size,0
s201,learn,580,L12,learn,0.88210011039243,4.02146347623162,1,0,0,2.95,size,0
s201,learn,581,L11,learn,-7.28850576128638,-4.27296495284132,1,1,1,0.5,size,0
s201,learn,582,L1,learn,-1.87481181428957,-1.78279251880948,0,0,1,0.842,size,0
s201,learn,583,L6,learn,-4.03805215285124,-3.6653889577802,0,0,1,1.001,size,0
s201,learn,584,L13,learn,-2.63424967277899,-0.415358110318393,1,1,1,0.817,size,0
s201,learn,585,L20,learn,-7.94104694192171,-5.49675715206952,1,1,1,0.65,size,0
s201,learn,586,L18,learn,3.05634619548501,2.73355920733567,0,0,1,1.06,size,0
s201,learn,587,L2,learn,4.78850576128638,4.52296495284132,0,0,1,0.494,size,0
s201,learn,588,L16,learn,-4.32525809607953,-4.49224278073692,0,1,0,1.437,size,0
s201,learn,589,L14,learn,-0.944278214366407,-0.885701689158013,0,1,0,0.718,size,0
s201,learn,590,L17,learn,0.134249672778992,0.665358110318393,0,0,1,0.856,size,0
s201,learn,591,L7,learn,-3.38210011039243,-3.77146347623162,0,0,1,0.721,size,0
s201,learn,592,L15,learn,-1.55572178563359,1.13570168915801,1,1,1,0.784,size,0
s201,learn,593,L4,learn,-3.6443518165071,-0.678950000151332,1,1,1,1.259,size,0
s201,learn,594,L9,learn,-5.55634619548501,-2.48355920733567,1,1,1,0.784,size,0
s201,learn,595,L12,learn,0.88210011039243,4.02146347623162,1,0,0,0.809,size,0
s201,learn,596,L3,learn,5.44104694192171,5.74675715206952,0,0,1,0.817,size,0
s201,learn,597,L10,learn,1.82525809607953,4.74224278073692,1,1,1,0.717,size,0
s201,learn,598,L8,learn,1.1443518165071,0.928950000151332,0,0,1,0.886,size,0
s201,learn,599,L19,learn,-0.62518818571043,2.03279251880948,1,1,1,0.717,size,0
s201,learn,600,L5,learn,1.53805215285124,3.9153889577802,1,1,1,0.733,size,0
s201,learn,601,L9,learn,-5.55634619548501,-2.48355920733567,1,1,1,1.387,size,0
s201,learn,602,L7,learn,-3.38210011039243,-3.77146347623162,0,0,1,0.823,size,0
s201,learn,603,L15,learn,-1.55572178563359,1.13570168915801,1,0,0,1.85,size,0
s201,learn,604,L17,learn,0.134249672778992,0.665358110318393,0,0,1,0.667,size,0
s201,learn,605,L6,learn,-4.03805215285124,-3.6653889577802,0,0,1,1.002,size,0
s201,learn,606,L3,learn,5.44104694192171,5.74675715206952,0,0,1,0.922,size,0
s201,learn,607,L2,learn,4.78850576128638,4.52296495284132,0,0,1,1.833,size,0
s201,learn,608,L4,learn,-3.6443518165071,-0.678950000151332,1,1,1,1.006,size,0
s201,learn,609,L14,learn,-0.944278214366407,-0.885701689158013,0,0,1,1.057,size,0
s201,learn,610,L19,learn,-0.62518818571043,2.03279251880948,1,1,1,0.887,size,0
s201,learn,611,L20,learn,-7.94104694192171,-5.49675715206952,1,1,1,0.674,size,0
s201,learn,612,L10,learn,1.82525809607953,4.74224278073692,1,1,1,0.935,size,0
s201,learn,613,L16,learn,-4.32525809607953,-4.49224278073692,0,0,1,0.938,size,0
s201,learn,614,L12,learn,0.88210011039243,4.02146347623162,1,1,1,0.884,size,0
s201,learn,615,L13,learn,-2.63424967277899,-0.415358110318393,1,1,1,0.76,size,0
s201,learn,616,L1,learn,-1.87481181428957,-1.78279251880948,0,0,1,0.733,size,0
s201,learn,617,L11,learn,-7.28850576128638,-4.27296495284132,1,1,1,0.686,size,0
s201,learn,618,L18,learn,3.05634619548501,2.73355920733567,0,1,0,0.733,size,0
s201,learn,619,L8,learn,1.1443518165071,0.928950000151332,0,0,1,0.785,size,0
s201,learn,620,L5,learn,1.53805215285124,3.9153889577802,1,1,1,0.69,size,0
s201,learn,621,L7,learn,-3.38210011039243,-3.77146347623162,0,0,1,0.97,size,0
s201,learn,622,L15,learn,-1.55572178563359,1.13570168915801,1,1,1,2.167,size,0
s201,learn,623,L11,learn,-7.28850576128638,-4.27296495284132,1,1,1,0.65,size,0
s201,learn,624,L20,learn,-7.94104694192171,-5.49675715206952,1,1,1,0.553,size,0
s201,learn,625,L2,learn,4.78850576128638,4.52296495284132,0,0,1,0.824,size,0
s201,learn,626,L12,learn,0.88210011039243,4.02146347623162,1,1,1,0.845,size,0
s201,learn,627,L17,learn,0.134249672778992,0.665358110318393,0,0,1,0.733,size,0
s201,learn,628,L4,learn,-3.6443518165071,-0.678950000151332,1,1,1,1.177,size,0
s201,learn,629,L5,learn,1.53805215285124,3.9153889577802,1,1,1,0.968,size,0
s201,learn,630,L3,learn,5.44104694192171,5.74675715206952,0,0,1,0.733,size,0
s201,learn,631,L19,learn,-0.62518818571043,2.03279251880948,1,1,1,0.701,size,0
s201,learn,632,L8,learn,1.1443518165071,0.928950000151332,0,0,1,0.883,size,0
s201,learn,633,L16,learn,-4.32525809607953,-4.49224278073692,0,0,1,1.099,size,0
s201,learn,634,L1,learn,-1.87481181428957,-1.78279251880948,0,0,1,1.417,size,0
s201,learn,635,L13,learn,-2.63424967277899,-0.415358110318393,1,1,1,0.807,size,0
s201,learn,636,L9,learn,-5.55634619548501,-2.48355920733567,1,1,1,1.237,size,0
s201,learn,637,L10,learn,1.82525809607953,4.74224278073692,1,1,1,1.243,size,0
s201,learn,638,L6,learn,-4.03805215285124,-3.6653889577802,0,0,1,0.866,size,0
s201,learn,639,L18,learn,3.05634619548501,2.73355920733567,0,0,1,1.262,size,0
s201,learn,640,L14,learn,-0.944278214366407,-0.885701689158013,0,1,0,1.703,size,0
s201,learn,641,L16,learn,-4.32525809607953,-4.49224278073692,0,1,0,0.917,size,0
s201,learn,642,L11,learn,-7.28850576128638,-4.27296495284132,1,1,1,0.617,size,0
s201,learn,643,L1,learn,-1.87481181428957,-1.78279251880948,0,0,1,0.717,size,0
s201,learn,644,L15,learn,-1.55572178563359,1.13570168915801,1,0,0,0.868,size,0
s201,learn,645,L8,learn,1.1443518165071,0.928950000151332,0,0,1,0.616,size,0
s201,learn,646,L20,learn,-7.94104694192171,-5.49675715206952,1,1,1,0.577,size,0
s201,learn,647,L10,learn,1.82525809607953,4.74224278073692,1,1,1,0.777,size,0
s201,learn,648,L9,learn,-5.55634619548501,-2.48355920733567,1,1,1,1.233,size,0
s201,learn,649,L14,learn,-0.944278214366407,-0.885701689158013,0,0,1,0.738,size,0
s201,learn,650,L18,learn,3.05634619548501,2.73355920733567,0,0,1,1.101,size,0
s201,learn,651,L19,learn,-0.62518818571043,2.03279251880948,1,1,1,2.785,size,0
s201,learn,652,L4,learn,-3.6443518165071,-0.678950000151332,1,1,1,0.866,size,0
s201,learn,653,L7,learn,-3.38210011039243,-3.77146347623162,0,0,1,0.817,size,0
s201,learn,654,L12,learn,0.88210011039243,4.02146347623162,1,0,0,2.534,size,0
s201,learn,655,L17,learn,0.134249672778992,0.665358110318393,0,0,1,0.709,size,0
s201,learn,656,L13,learn,-2.63424967277899,-0.415358110318393,1,1,1,0.666,size,0
s201,learn,657,L6,learn,-4.03805215285124,-3.6653889577802,0,0,1,0.76,size,0
s201,learn,658,L2,learn,4.78850576128638,4.52296495284132,0,0,1,0.789,size,0
s201,learn,659,L5,learn,1.53805215285124,3.9153889577802,1,1,1,0.734,size,0
s201,learn,660,L3,learn,5.44104694192171,5.74675715206952,0,0,1,0.772,size,0
s201,learn,661,L18,learn,3.05634619548501,2.73355920733567,0,1,0,0.924,size,0
s201,learn,662,L13,learn,-2.63424967277899,-0.415358110318393,1,1,1,0.667,size,0
s201,learn,663,L8,learn,1.1443518165071,0.928950000151332,0,0,1,0.669,size,0
s201,learn,664,L11,learn,-7.28850576128638,-4.27296495284132,1,1,1,0.678,size,0
s201,learn,665,L4,learn,-3.6443518165071,-0.678950000151332,1,1,1,0.795,size,0
s201,learn,666,L15,learn,-1.55572178563359,1.13570168915801,1,1,1,1.55,size,0
s201,learn,667,L5,learn,1.53805215285124,3.9153889577802,1,0,0,0.906,size,0
s201,learn,668,L19,learn,-0.62518818571043,2.03279251880948,1,1,1,0.805,size,0
s201,learn,669,L14,learn,-0.944278214366407,-0.885701689158013,0,1,0,7.843,size,0
s201,learn,670,L17,learn,0.134249672778992,0.665358110318393,0,0,1,1.118,size,0
s201,learn,671,L3,learn,5.44104694192171,5.74675715206952,0,0,1,0.767,size,0
s201,learn,672,L1,learn,-1.87481181428957,-1.78279251880948,0,0,1,1.026,size,0
s201,learn,673,L16,learn,-4.32525809607953,-4.49224278073692,0,1,0,0.725,size,0
s201,learn,674,L7,learn,-3.38210011039243,-3.77146347623162,0,0,1,0.666,size,0
s201,learn,675,L6,learn,-4.03805215285124,-3.6653889577802,0,0,1,0.903,size,0
s201,learn,676,L12,learn,0.88210011039243,4.02146347623162,1,1,1,0.899,size,0
s201,learn,677,L2,learn,4.78850576128638,4.52296495284132,0,0,1,0.69,size,0
s201,learn,678,L10,learn,1.82525809607953,4.74224278073692,1,1,1,0.782,size,0
s201,learn,679,L9,learn,-5.55634619548501,-2.48355920733567,1,1,1,0.6,size,0
s201,learn,680,L20,learn,-7.94104694192171,-5.49675715206952,1,1,1,0.584,size,0
s201,learn,681,L17,learn,0.134249672778992,0.665358110318393,0,0,1,0.733,size,0
s201,learn,682,L5,learn,1.53805215285124,3.9153889577802,1,1,1,1.154,size,0
s201,learn,683,L15,learn,-1.55572178563359,1.13570168915801,1,1,1,2.253,size,0
s201,learn,684,L13,learn,-2.63424967277899,-0.415358110318393,1,1,1,1.07,size,0
s201,learn,685,L11,learn,-7.28850576128638,-4.27296495284132,1,1,1,0.586,size,0
s201,learn,686,L10,learn,1.82525809607953,4.74224278073692,1,1,1,2.199,size,0
s201,learn,687,L3,learn,5.44104694192171,5.74675715206952,0,0,1,0.684,size,0
s201,learn,688,L20,learn,-7.94104694192171,-5.49675715206952,1,1,1,0.626,size,0
s201,learn,689,L18,learn,3.05634619548501,2.73355920733567,0,0,1,4.701,size,0
s201,learn,690,L4,learn,-3.6443518165071,-0.678950000151332,1,0,0,2.17,size,0
s201,learn,691,L1,learn,-1.87481181428957,-1.78279251880948,0,0,1,1.301,size,0
s201,learn,692,L6,learn,-4.03805215285124,-3.6653889577802,0,0,1,1.25,size,0
s201,learn,693,L12,learn,0.88210011039243,4.02146347623162,1,1,1,2.04,size,0
s201,learn,694,L16,learn,-4.32525809607953,-4.49224278073692,0,0,1,1.067,size,0
s201,learn,695,L7,learn,-3.38210011039243,-3.77146347623162,0,0,1,0.966,size,0
s201,learn,696,L14,learn,-0.944278214366407,-0.885701689158013,0,0,1,1.74,size,0
s201,learn,697,L19,learn,-0.62518818571043,2.03279251880948,1,1,1,1.866,size,0
s201,learn,698,L9,learn,-5.55634619548501,-2.48355920733567,1,1,1,1.118,size,0
s201,learn,699,L2,learn,4.78850576128638,4.52296495284132,0,0,1,0.734,size,0
s201,learn,700,L8,learn,1.1443518165071,0.928950000151332,0,0,1,1.068,size,0
s201,learn,701,L11,learn,-7.28850576128638,-4.27296495284132,1,1,1,0.938,size,0
s201,learn,702,L19,learn,-0.62518818571043,2.03279251880948,1,1,1,1.791,size,0
s201,learn,703,L2,learn,4.78850576128638,4.52296495284132,0,0,1,1.26,size,0
s201,learn,704,L20,learn,-7.94104694192171,-5.49675715206952,1,1,1,1.051,size,0
s201,learn,705,L3,learn,5.44104694192171,5.74675715206952,0,0,1,1.099,size,0
s201,learn,706,L13,learn,-2.63424967277899,-0.415358110318393,1,1,1,1.259,size,0
s201,learn,707,L14,learn,-0.944278214366407,-0.885701689158013,0,0,1,2.058,size,0
s201,learn,708,L7,learn,-3.38210011039243,-3.77146347623162,0,0,1,1.316,size,0
s201,learn,709,L9,learn,-5.55634619548501,-2.48355920733567,1,1,1,1.826,size,0
s201,learn,710,L8,learn,1.1443518165071,0.928950000151332,0,0,1,1.56,size,0
s201,learn,711,L18,learn,3.05634619548501,2.73355920733567,0,0,1,2.233,size,0
s201,learn,712,L5,learn,1.53805215285124,3.9153889577802,1,1,1,1.319,size,0
s201,learn,713,L6,learn,-4.03805215285124,-3.6653889577802,0,0,1,1.486,size,0
s201,learn,714,L12,learn,0.88210011039243,4.02146347623162,1,1,1,1.216,size,0
s201,learn,715,L10,learn,1.82525809607953,4.74224278073692,1,1,1,1.593,size,0
s201,learn,716,L17,learn,0.134249672778992,0.665358110318393,0,0,1,1.288,size,0
s201,learn,717,L1,learn,-1.87481181428957,-1.78279251880948,0,0,1,1.143,size,0
s201,learn,718,L15,learn,-1.55572178563359,1.13570168915801,1,1,1,2.255,size,0
s201,transfer,719,T6,transfer,4.31144106636633,7.46752345742789,,0,,0.811,size,0
s201,transfer,720,T8,transfer,5.30591425448105,8.55763572810428,,0,,0.921,size,0
s201,transfer,721,L9,learn,-5.55634619548501,-2.48355920733567,1,1,1,1.318,size,0
s201,transfer,722,T7,transfer,4.80867766042369,8.01257959276609,,0,,0.772,size,0
s201,transfer,723,L10,learn,1.82525809607953,4.74224278073692,1,1,1,1,size,0
s201,transfer,724,L3,learn,5.44104694192171,5.74675715206952,0,0,1,0.884,size,0
s201,transfer,725,T3,transfer,-6.81144106636633,-7.21752345742789,,1,,0.735,size,0
s201,transfer,726,L16,learn,-4.32525809607953,-4.49224278073692,0,0,1,1.721,size,0
s201,transfer,727,L14,learn,-0.944278214366407,-0.885701689158013,0,0,1,3.1,size,0
s201,transfer,728,L4,learn,-3.6443518165071,-0.678950000151332,1,1,1,0.855,size,0
s201,transfer,729,L8,learn,1.1443518165071,0.928950000151332,0,0,1,1.056,size,0
s201,transfer,730,L6,learn,-4.03805215285124,-3.6653889577802,0,0,1,1.233,size,0
s201,transfer,731,L15,learn,-1.55572178563359,1.13570168915801,1,0,0,1.184,size,0
s201,transfer,732,L17,learn,0.134249672778992,0.665358110318393,0,0,1,1.195,size,0
s201,transfer,733,L1,learn,-1.87481181428957,-1.78279251880948,0,1,0,0.968,size,0
s201,transfer,734,L13,learn,-2.63424967277899,-0.415358110318393,1,1,1,1.294,size,0
s201,transfer,735,L11,learn,-7.28850576128638,-4.27296495284132,1,1,1,0.7,size,0
s201,transfer,736,L18,learn,3.05634619548501,2.73355920733567,0,0,1,2.433,size,0
s201,transfer,737,L19,learn,-0.62518818571043,2.03279251880948,1,1,1,1.075,size,0
s201,transfer,738,T4,transfer,-6.31420447230897,-6.6724673220897,,1,,0.719,size,0
s201,transfer,739,L7,learn,-3.38210011039243,-3.77146347623162,0,0,1,1.367,size,0
s201,transfer,740,T5,transfer,3.81420447230897,6.9224673220897,,0,,0.742,size,0
s201,transfer,741,L20,learn,-7.94104694192171,-5.49675715206952,1,1,1,0.788,size,0
s201,transfer,742,L12,learn,0.88210011039243,4.02146347623162,1,1,1,1.201,size,0
s201,transfer,743,T1,transfer,-7.80591425448105,-8.30763572810428,,1,,1.007,size,0
s201,transfer,744,L2,learn,4.78850576128638,4.52296495284132,0,0,1,0.953,size,0
s201,transfer,745,T2,transfer,-7.30867766042369,-7.76257959276609,,1,,0.89,size,0
s201,transfer,746,L5,learn,1.53805215285124,3.9153889577802,1,1,1,0.919,size,0
s201,transfer,747,L18,learn,3.05634619548501,2.73355920733567,0,1,0,0.935,size,0
s201,transfer,748,L7,learn,-3.38210011039243,-3.77146347623162,0,0,1,0.9,size,0
s201,transfer,749,T2,transfer,-7.30867766042369,-7.76257959276609,,1,,0.784,size,0
s201,transfer,750,T4,transfer,-6.31420447230897,-6.6724673220897,,1,,0.685,size,0
s201,transfer,751,L12,learn,0.88210011039243,4.02146347623162,1,1,1,2.069,size,0
s201,transfer,752,L13,learn,-2.63424967277899,-0.415358110318393,1,1,1,0.901,size,0
s201,transfer,753,T5,transfer,3.81420447230897,6.9224673220897,,0,,0.751,size,0
s201,transfer,754,L16,learn,-4.32525809607953,-4.49224278073692,0,0,1,1.068,size,0
s201,transfer,755,L15,learn,-1.55572178563359,1.13570168915801,1,1,1,4.34,size,0
s201,transfer,756,T3,transfer,-6.81144106636633,-7.21752345742789,,1,,0.752,size,0
s201,transfer,757,L17,learn,0.134249672778992,0.665358110318393,0,0,1,0.904,size,0
s201,transfer,758,L3,learn,5.44104694192171,5.74675715206952,0,0,1,0.694,size,0
s201,transfer,759,L20,learn,-7.94104694192171,-5.49675715206952,1,1,1,0.804,size,0
s201,transfer,760,L4,learn,-3.6443518165071,-0.678950000151332,1,1,1,1.224,size,0
s201,transfer,761,L5,learn,1.53805215285124,3.9153889577802,1,1,1,0.916,size,0
s201,transfer,762,L1,learn,-1.87481181428957,-1.78279251880948,0,0,1,0.784,size,0
s201,transfer,763,T6,transfer,4.31144106636633,7.46752345742789,,0,,0.687,size,0
s201,transfer,764,T8,transfer,5.30591425448105,8.55763572810428,,0,,0.566,size,0
s201,transfer,765,L10,learn,1.82525809607953,4.74224278073692,1,1,1,0.885,size,0
s201,transfer,766,L6,learn,-4.03805215285124,-3.6653889577802,0,0,1,1.091,size,0
s201,transfer,767,T7,transfer,4.80867766042369,8.01257959276609,,0,,0.655,size,0
s201,transfer,768,L14,learn,-0.944278214366407,-0.885701689158013,0,1,0,1.749,size,0
s201,transfer,769,L9,learn,-5.55634619548501,-2.48355920733567,1,1,1,0.683,size,0
s201,transfer,770,T1,transfer,-7.80591425448105,-8.30763572810428,,1,,0.717,size,0
s201,transfer,771,L19,learn,-0.62518818571043,2.03279251880948,1,0,0,1.334,size,0
s201,transfer,772,L11,learn,-7.28850576128638,-4.27296495284132,1,1,1,1.185,size,0
s201,transfer,773,L2,learn,4.78850576128638,4.52296495284132,0,0,1,0.656,size,0
s201,transfer,774,L8,learn,1.1443518165071,0.928950000151332,0,0,1,2.082,size,0
s201,transfer,775,L13,learn,-2.63424967277899,-0.415358110318393,1,1,1,1.701,size,0
s201,transfer,776,T6,transfer,4.31144106636633,7.46752345742789,,0,,0.685,size,0
s201,transfer,777,T8,transfer,5.30591425448105,8.55763572810428,,0,,0.534,size,0
s201,transfer,778,L8,learn,1.1443518165071,0.928950000151332,0,0,1,1.546,size,0
s201,transfer,779,T3,transfer,-6.81144106636633,-7.21752345742789,,1,,0.734,size,0
s201,transfer,780,T2,transfer,-7.30867766042369,-7.76257959276609,,1,,0.655,size,0
s201,transfer,781,L1,learn,-1.87481181428957,-1.78279251880948,0,0,1,1.017,size,0
s201,transfer,782,T7,transfer,4.80867766042369,8.01257959276609,,0,,0.674,size,0
s201,transfer,783,T4,transfer,-6.31420447230897,-6.6724673220897,,1,,0.724,size,0
s201,transfer,784,T5,transfer,3.81420447230897,6.9224673220897,,0,,1.689,size,0
s201,transfer,785,L6,learn,-4.03805215285124,-3.6653889577802,0,0,1,1.007,size,0
s201,transfer,786,L16,learn,-4.32525809607953,-4.49224278073692,0,0,1,1.099,size,0
s201,transfer,787,L18,learn,3.05634619548501,2.73355920733567,0,1,0,1.252,size,0
s201,transfer,788,L14,learn,-0.944278214366407,-0.885701689158013,0,0,1,6.167,size,0
s201,transfer,789,L7,learn,-3.38210011039243,-3.77146347623162,0,0,1,1.02,size,0
s201,transfer,790,L11,learn,-7.28850576128638,-4.27296495284132,1,1,1,0.684,size,0
s201,transfer,791,L3,learn,5.44104694192171,5.74675715206952,0,0,1,0.701,size,0
s201,transfer,792,L2,learn,4.78850576128638,4.52296495284132,0,0,1,0.649,size,0
s201,transfer,793,L5,learn,1.53805215285124,3.9153889577802,1,1,1,1.034,size,0
s201,transfer,794,L20,learn,-7.94104694192171,-5.49675715206952,1,1,1,0.667,size,0
s201,transfer,795,L15,learn,-1.55572178563359,1.13570168915801,1,0,0,1.603,size,0
s201,transfer,796,L10,learn,1.82525809607953,4.74224278073692,1,0,0,1.292,size,0
s201,transfer,797,L12,learn,0.88210011039243,4.02146347623162,1,1,1,0.732,size,0
s201,transfer,798,L4,learn,-3.6443518165071,-0.678950000151332,1,1,1,0.94,size,0
s201,transfer,799,L17,learn,0.134249672778992,0.665358110318393,0,0,1,0.971,size,0
s201,transfer,800,L19,learn,-0.62518818571043,2.03279251880948,1,1,1,0.984,size,0
s201,transfer,801,T1,transfer,-7.80591425448105,-8.30763572810428,,1,,0.584,size,0
s201,transfer,802,L9,learn,-5.55634619548501,-2.48355920733567,1,1,1,1.178,size,0
s201,filler,803,F7,filler,3.31696787825161,6.3774111867515,,0,,0.738,size,0
s201,filler,804,F5,filler,2.32249469013689,5.28729891607511,,1,,0.891,size,0
s201,filler,805,F8,filler,5.80315084853841,6.3774111867515,,0,,0.835,size,0
s201,filler,806,F6,filler,2.81973128419425,5.83235505141331,,1,,0.824,size,0
s201,filler,807,F1,filler,-8.30315084853841,-6.1274111867515,,1,,0.778,size,0
s201,filler,808,F2,filler,-5.81696787825161,-6.1274111867515,,0,,0.966,size,0
s201,filler,809,F3,filler,-5.31973128419425,-5.58235505141331,,0,,0.816,size,0
s201,filler,810,F4,filler,-4.82249469013689,-5.03729891607511,,0,,0.667,size,0
s202,learn,1,L19,learn,-0.62518818571043,2.03279251880948,1,0,0,0.955325,size,0
s202,learn,2,L7,learn,-3.38210011039243,-3.77146347623162,0,0,1,1.25434,size,0
s202,learn,3,L6,learn,-4.03805215285124,-3.6653889577802,0,0,1,0.908905,size,0
s202,learn,4,L5,learn,1.53805215285124,3.9153889577802,1,1,1,0.6039,size,0
s202,learn,5,L1,learn,-1.87481181428957,-1.78279251880948,0,0,1,0.620405,size,0
s202,learn,6,L17,learn,0.134249672778992,0.665358110318393,0,1,0,0.83095,size,0
s202,learn,7,L2,learn,4.78850576128638,4.52296495284132,0,1,0,0.78843,size,0
s202,learn,8,L8,learn,1.1443518165071,0.928950000151332,0,0,1,3.459115,size,0
s202,learn,9,L12,learn,0.88210011039243,4.02146347623162,1,1,1,1.508385,size,0
s202,learn,10,L14,learn,-0.944278214366407,-0.885701689158013,0,0,1,1.059285,size,0
s202,learn,11,L9,learn,-5.55634619548501,-2.48355920733567,1,0,0,0.978345,size,0
s202,learn,12,L4,learn,-3.6443518165071,-0.678950000151332,1,1,1,3.125175,size,0
s202,learn,13,L16,learn,-4.32525809607953,-4.49224278073692,0,1,0,1.037935,size,0
s202,learn,14,L10,learn,1.82525809607953,4.74224278073692,1,1,1,2.35774,size,0
s202,learn,15,L15,learn,-1.55572178563359,1.13570168915801,1,0,0,1.25678,size,0
s202,learn,16,L13,learn,-2.63424967277899,-0.415358110318393,1,0,0,1.772225,size,0
s202,learn,17,L3,learn,5.44104694192171,5.74675715206952,0,1,0,1.437685,size,0
s202,learn,18,L11,learn,-7.28850576128638,-4.27296495284132,1,1,1,1.054585,size,0
s202,learn,19,L18,learn,3.05634619548501,2.73355920733567,0,1,0,1.69548,size,0
s202,learn,20,L20,learn,-7.94104694192171,-5.49675715206952,1,1,1,1.154775,size,0
s202,learn,21,L14,learn,-0.944278214366407,-0.885701689158013,0,0,1,1.459795,size,0
s202,learn,22,L18,learn,3.05634619548501,2.73355920733567,0,1,0,2.203865,size,0
s202,learn,23,L5,learn,1.53805215285124,3.9153889577802,1,1,1,2.308745,size,0
s202,learn,24,L15,learn,-1.55572178563359,1.13570168915801,1,0,0,1.10819,size,0
s202,learn,25,L17,learn,0.134249672778992,0.665358110318393,0,1,0,1.304535,size,0
s202,learn,26,L12,learn,0.88210011039243,4.02146347623162,1,1,1,2.416025,size,0
s202,learn,27,L3,learn,5.44104694192171,5.74675715206952,0,0,1,1.27367,size,0
s202,learn,28,L9,learn,-5.55634619548501,-2.48355920733567,1,1,1,3.21068,size,0
s202,learn,29,L1,learn,-1.87481181428957,-1.78279251880948,0,1,0,1.379045,size,0
s202,learn,30,L2,learn,4.78850576128638,4.52296495284132,0,1,0,1.0245,size,0
s202,learn,31,L4,learn,-3.6443518165071,-0.678950000151332,1,1,1,1.136815,size,0
s202,learn,32,L16,learn,-4.32525809607953,-4.49224278073692,0,1,0,0.959625,size,0
s202,learn,33,L8,learn,1.1443518165071,0.928950000151332,0,0,1,1.930355,size,0
s202,learn,34,L13,learn,-2.63424967277899,-0.415358110318393,1,1,1,1.2043,size,0
s202,learn,35,L11,learn,-7.28850576128638,-4.27296495284132,1,1,1,2.3786,size,0
s202,learn,36,L7,learn,-3.38210011039243,-3.77146347623162,0,0,1,1.3904,size,0
s202,learn,37,L10,learn,1.82525809607953,4.74224278073692,1,1,1,1.84852,size,0
s202,learn,38,L20,learn,-7.94104694192171,-5.49675715206952,1,1,1,1.05744,size,0
s202,learn,39,L19,learn,-0.62518818571043,2.03279251880948,1,0,0,2.625425,size,0
s202,learn,40,L6,learn,-4.03805215285124,-3.6653889577802,0,1,0,3.073855,size,0
s202,learn,41,L3,learn,5.44104694192171,5.74675715206952,0,1,0,1.162915,size,0
s202,learn,42,L13,learn,-2.63424967277899,-0.415358110318393,1,0,0,1.36016,size,0
s202,learn,43,L20,learn,-7.94104694192171,-5.49675715206952,1,1,1,0.842425,size,0
s202,learn,44,L5,learn,1.53805215285124,3.9153889577802,1,1,1,2.13141,size,0
s202,learn,45,L6,learn,-4.03805215285124,-3.6653889577802,0,0,1,1.00481,size,0
s202,learn,46,L11,learn,-7.28850576128638,-4.27296495284132,1,1,1,0.688655,size,0
s202,learn,47,L12,learn,0.88210011039243,4.02146347623162,1,0,0,1.283095,size,0
s202,learn,48,L7,learn,-3.38210011039243,-3.77146347623162,0,0,1,1.962435,size,0
s202,learn,49,L8,learn,1.1443518165071,0.928950000151332,0,1,0,2.00536,size,0
s202,learn,50,L19,learn,-0.62518818571043,2.03279251880948,1,0,0,1.59329,size,0
s202,learn,51,L18,learn,3.05634619548501,2.73355920733567,0,1,0,0.95592,size,0
s202,learn,52,L16,learn,-4.32525809607953,-4.49224278073692,0,0,1,1.35488,size,0
s202,learn,53,L10,learn,1.82525809607953,4.74224278073692,1,1,1,1.357145,size,0
s202,learn,54,L2,learn,4.78850576128638,4.52296495284132,0,0,1,0.97116,size,0
s202,learn,55,L17,learn,0.134249672778992,0.665358110318393,0,1,0,3.607485,size,0
s202,learn,56,L9,learn,-5.55634619548501,-2.48355920733567,1,1,1,0.776135,size,0
s202,learn,57,L15,learn,-1.55572178563359,1.13570168915801,1,0,0,0.878005,size,0
s202,learn,58,L4,learn,-3.6443518165071,-0.678950000151332,1,0,0,1.90979,size,0
s202,learn,59,L14,learn,-0.944278214366407,-0.885701689158013,0,1,0,1.587715,size,0
s202,learn,60,L1,learn,-1.87481181428957,-1.78279251880948,0,0,1,1.06281,size,0
s202,learn,61,L8,learn,1.1443518165071,0.928950000151332,0,1,0,1.26224,size,0
s202,learn,62,L11,learn,-7.28850576128638,-4.27296495284132,1,1,1,0.987485,size,0
s202,learn,63,L16,learn,-4.32525809607953,-4.49224278073692,0,1,0,0.83432,size,0
s202,learn,64,L15,learn,-1.55572178563359,1.13570168915801,1,0,0,1.42122,size,0
s202,learn,65,L13,learn,-2.63424967277899,-0.415358110318393,1,0,0,1.287445,size,0
s202,learn,66,L18,learn,3.05634619548501,2.73355920733567,0,0,1,1.787725,size,0
s202,learn,67,L20,learn,-7.94104694192171,-5.49675715206952,1,1,1,1.230275,size,0
s202,learn,68,L9,learn,-5.55634619548501,-2.48355920733567,1,1,1,0.89033,size,0
s202,learn,69,L12,learn,0.88210011039243,4.02146347623162,1,1,1,2.615665,size,0
s202,learn,70,L5,learn,1.53805215285124,3.9153889577802,1,1,1,0.604445,size,0
s202,learn,71,L4,learn,-3.6443518165071,-0.678950000151332,1,0,0,1.180235,size,0
s202,learn,72,L1,learn,-1.87481181428957,-1.78279251880948,0,0,1,0.968935,size,0
s202,learn,73,L17,learn,0.134249672778992,0.665358110318393,0,1,0,2.52239,size,0
s202,learn,74,L2,learn,4.78850576128638,4.52296495284132,0,0,1,1.1931,size,0
s202,learn,75,L7,learn,-3.38210011039243,-3.77146347623162,0,0,1,1.33855,size,0
s202,learn,76,L19,learn,-0.62518818571043,2.03279251880948,1,1,1,0.79148,size,0
s202,learn,77,L3,learn,5.44104694192171,5.74675715206952,0,0,1,1.23945,size,0
s202,learn,78,L10,learn,1.82525809607953,4.74224278073692,1,0,0,0.741045,size,0
s202,learn,79,L6,learn,-4.03805215285124,-3.6653889577802,0,0,1,1.226165,size,0
s202,learn,80,L14,learn,-0.944278214366407,-0.885701689158013,0,1,0,1.330455,size,0
s202,learn,81,L19,learn,-0.62518818571043,2.03279251880948,1,0,0,1.80827,size,0
s202,learn,82,L11,learn,-7.28850576128638,-4.27296495284132,1,1,1,0.731245,size,0
s202,learn,83,L3,learn,5.44104694192171,5.74675715206952,0,0,1,1.608875,size,0
s202,learn,84,L17,learn,0.134249672778992,0.665358110318393,0,0,1,0.738655,size,0
s202,learn,85,L14,learn,-0.944278214366407,-0.885701689158013,0,0,1,1.759625,size,0
s202,learn,86,L20,learn,-7.94104694192171,-5.49675715206952,1,1,1,0.659935,size,0
s202,learn,87,L18,learn,3.05634619548501,2.73355920733567,0,0,1,1.73151,size,0
s202,learn,88,L7,learn,-3.38210011039243,-3.77146347623162,0,1,0,1.43252,size,0
s202,learn,89,L4,learn,-3.6443518165071,-0.678950000151332,1,1,1,1.130715,size,0
s202,learn,90,L13,learn,-2.63424967277899,-0.415358110318393,1,1,1,0.657185,size,0
s202,learn,91,L2,learn,4.78850576128638,4.52296495284132,0,0,1,1.80744,size,0
s202,learn,92,L10,learn,1.82525809607953,4.74224278073692,1,0,0,1.036955,size,0
s202,learn,93,L9,learn,-5.55634619548501,-2.48355920733567,1,1,1,0.97151,size,0
s202,learn,94,L16,learn,-4.32525809607953,-4.49224278073692,0,1,0,0.837085,size,0
s202,learn,95,L12,learn,0.88210011039243,4.02146347623162,1,1,1,2.08962,size,0
s202,learn,96,L5,learn,1.53805215285124,3.9153889577802,1,1,1,0.80352,size,0
s202,learn,97,L6,learn,-4.03805215285124,-3.6653889577802,0,1,0,1.24191,size,0
s202,learn,98,L1,learn,-1.87481181428957,-1.78279251880948,0,0,1,1.156795,size,0
s202,learn,99,L15,learn,-1.55572178563359,1.13570168915801,1,0,0,0.922565,size,0
s202,learn,100,L8,learn,1.1443518165071,0.928950000151332,0,0,1,2.165265,size,0
s202,learn,101,L4,learn,-3.6443518165071,-0.678950000151332,1,0,0,1.3236,size,0
s202,learn,102,L3,learn,5.44104694192171,5.74675715206952,0,0,1,1.041095,size,0
s202,learn,103,L16,learn,-4.32525809607953,-4.49224278073692,0,1,0,0.805845,size,0
s202,learn,104,L18,learn,3.05634619548501,2.73355920733567,0,0,1,2.09265,size,0
s202,learn,105,L9,learn,-5.55634619548501,-2.48355920733567,1,1,1,0.692225,size,0
s202,learn,106,L10,learn,1.82525809607953,4.74224278073692,1,0,0,0.939555,size,0
s202,learn,107,L15,learn,-1.55572178563359,1.13570168915801,1,1,1,2.456155,size,0
s202,learn,108,L12,learn,0.88210011039243,4.02146347623162,1,0,0,1.30508,size,0
s202,learn,109,L14,learn,-0.944278214366407,-0.885701689158013,0,0,1,0.922385,size,0
s202,learn,110,L13,learn,-2.63424967277899,-0.415358110318393,1,1,1,1.133625,size,0
s202,learn,111,L1,learn,-1.87481181428957,-1.78279251880948,0,1,0,0.88105,size,0
s202,learn,112,L2,learn,4.78850576128638,4.52296495284132,0,0,1,1.34738,size,0
s202,learn,113,L17,learn,0.134249672778992,0.665358110318393,0,1,0,2.42124,size,0
s202,learn,114,L8,learn,1.1443518165071,0.928950000151332,0,0,1,1.608965,size,0
s202,learn,115,L20,learn,-7.94104694192171,-5.49675715206952,1,1,1,0.51546,size,0
s202,learn,116,L7,learn,-3.38210011039243,-3.77146347623162,0,1,0,0.59319,size,0
s202,learn,117,L6,learn,-4.03805215285124,-3.6653889577802,0,1,0,0.74901,size,0
s202,learn,118,L19,learn,-0.62518818571043,2.03279251880948,1,1,1,1.40973,size,0
s202,learn,119,L11,learn,-7.28850576128638,-4.27296495284132,1,1,1,0.852855,size,0
s202,learn,120,L5,learn,1.53805215285124,3.9153889577802,1,1,1,1.292425,size,0
s202,learn,121,L6,learn,-4.03805215285124,-3.6653889577802,0,1,0,1.93116,size,0
s202,learn,122,L20,learn,-7.94104694192171,-5.49675715206952,1,1,1,0.64807,size,0
s202,learn,123,L14,learn,-0.944278214366407,-0.885701689158013,0,0,1,1.02557,size,0
s202,learn,124,L7,learn,-3.38210011039243,-3.77146347623162,0,1,0,0.794525,size,0
s202,learn,125,L18,learn,3.05634619548501,2.73355920733567,0,1,0,1.6542,size,0
s202,learn,126,L8,learn,1.1443518165071,0.928950000151332,0,1,0,1.975745,size,0
s202,learn,127,L9,learn,-5.55634619548501,-2.48355920733567,1,1,1,1.010375,size,0
s202,learn,128,L1,learn,-1.87481181428957,-1.78279251880948,0,0,1,1.44615,size,0
s202,learn,129,L12,learn,0.88210011039243,4.02146347623162,1,1,1,1.141955,size,0
s202,learn,130,L3,learn,5.44104694192171,5.74675715206952,0,0,1,1.011335,size,0
s202,learn,131,L16,learn,-4.32525809607953,-4.49224278073692,0,1,0,1.05415,size,0
s202,learn,132,L10,learn,1.82525809607953,4.74224278073692,1,1,1,1.55445,size,0
s202,learn,133,L13,learn,-2.63424967277899,-0.415358110318393,1,0,0,0.9552,size,0
s202,learn,134,L4,learn,-3.6443518165071,-0.678950000151332,1,0,0,1.824715,size,0
s202,learn,135,L15,learn,-1.55572178563359,1.13570168915801,1,1,1,1.544245,size,0
s202,learn,136,L2,learn,4.78850576128638,4.52296495284132,0,0,1,0.84642,size,0
s202,learn,137,L17,learn,0.134249672778992,0.665358110318393,0,1,0,1.02247,size,0
s202,learn,138,L5,learn,1.53805215285124,3.9153889577802,1,0,0,1.106435,size,0
s202,learn,139,L19,learn,-0.62518818571043,2.03279251880948,1,1,1,2.73843,size,0
s202,learn,140,L11,learn,-7.28850576128638,-4.27296495284132,1,1,1,0.676935,size,0
s202,learn,141,L11,learn,-7.28850576128638,-4.27296495284132,1,1,1,0.49252,size,0
s202,learn,142,L15,learn,-1.55572178563359,1.13570168915801,1,1,1,1.65509,size,0
s202,learn,143,L5,learn,1.53805215285124,3.9153889577802,1,0,0,1.155395,size,0
s202,learn,144,L3,learn,5.44104694192171,5.74675715206952,0,0,1,0.79168,size,0
s202,learn,145,L6,learn,-4.03805215285124,-3.6653889577802,0,0,1,1.92401,size,0
s202,learn,146,L2,learn,4.78850576128638,4.52296495284132,0,0,1,0.919825,size,0
s202,learn,147,L1,learn,-1.87481181428957,-1.78279251880948,0,0,1,2.23823,size,0
s202,learn,148,L8,learn,1.1443518165071,0.928950000151332,0,1,0,1.52541,size,0
s202,learn,149,L19,learn,-0.62518818571043,2.03279251880948,1,1,1,1.04234,size,0
s202,learn,150,L9,learn,-5.55634619548501,-2.48355920733567,1,1,1,1.16327,size,0
s202,learn,151,L10,learn,1.82525809607953,4.74224278073692,1,1,1,1.25463,size,0
s202,learn,152,L16,learn,-4.32525809607953,-4.49224278073692,0,1,0,0.80587,size,0
s202,learn,153,L17,learn,0.134249672778992,0.665358110318393,0,1,0,1.576465,size,0
s202,learn,154,L13,learn,-2.63424967277899,-0.415358110318393,1,0,0,1.36441,size,0
s202,learn,155,L7,learn,-3.38210011039243,-3.77146347623162,0,0,1,1.46289,size,0
s202,learn,156,L14,learn,-0.944278214366407,-0.885701689158013,0,0,1,1.232035,size,0
s202,learn,157,L18,learn,3.05634619548501,2.73355920733567,0,0,1,1.003775,size,0
s202,learn,158,L20,learn,-7.94104694192171,-5.49675715206952,1,1,1,0.427185,size,0
s202,learn,159,L4,learn,-3.6443518165071,-0.678950000151332,1,0,0,1.564525,size,0
s202,learn,160,L12,learn,0.88210011039243,4.02146347623162,1,1,1,0.992495,size,0
s202,learn,161,L10,learn,1.82525809607953,4.74224278073692,1,1,1,0.940235,size,0
s202,learn,162,L1,learn,-1.87481181428957,-1.78279251880948,0,0,1,1.38668,size,0
s202,learn,163,L3,learn,5.44104694192171,5.74675715206952,0,0,1,0.80448,size,0
s202,learn,164,L12,learn,0.88210011039243,4.02146347623162,1,1,1,1.34283,size,0
s202,learn,165,L2,learn,4.78850576128638,4.52296495284132,0,0,1,0.67012,size,0
s202,learn,166,L17,learn,0.134249672778992,0.665358110318393,0,0,1,1.303825,size,0
s202,learn,167,L7,learn,-3.38210011039243,-3.77146347623162,0,0,1,1.680695,size,0
s202,learn,168,L4,learn,-3.6443518165071,-0.678950000151332,1,0,0,0.67578,size,0
s202,learn,169,L9,learn,-5.55634619548501,-2.48355920733567,1,1,1,0.728435,size,0
s202,learn,170,L13,learn,-2.63424967277899,-0.415358110318393,1,0,0,1.32682,size,0
s202,learn,171,L19,learn,-0.62518818571043,2.03279251880948,1,1,1,1.21077,size,0
s202,learn,172,L18,learn,3.05634619548501,2.73355920733567,0,0,1,0.92545,size,0
s202,learn,173,L6,learn,-4.03805215285124,-3.6653889577802,0,1,0,2.09022,size,0
s202,learn,174,L16,learn,-4.32525809607953,-4.49224278073692,0,0,1,0.491765,size,0
s202,learn,175,L11,learn,-7.28850576128638,-4.27296495284132,1,1,1,0.405705,size,0
s202,learn,176,L20,learn,-7.94104694192171,-5.49675715206952,1,1,1,0.411815,size,0
s202,learn,177,L15,learn,-1.55572178563359,1.13570168915801,1,1,1,2.126495,size,0
s202,learn,178,L8,learn,1.1443518165071,0.928950000151332,0,0,1,1.356255,size,0
s202,learn,179,L14,learn,-0.944278214366407,-0.885701689158013,0,0,1,1.32824,size,0
s202,learn,180,L5,learn,1.53805215285124,3.9153889577802,1,1,1,1.581985,size,0
s202,learn,181,L20,learn,-7.94104694192171,-5.49675715206952,1,1,1,0.595065,size,0
s202,learn,182,L3,learn,5.44104694192171,5.74675715206952,0,0,1,0.8619,size,0
s202,learn,183,L11,learn,-7.28850576128638,-4.27296495284132,1,1,1,0.709275,size,0
s202,learn,184,L7,learn,-3.38210011039243,-3.77146347623162,0,0,1,1.67593,size,0
s202,learn,185,L2,learn,4.78850576128638,4.52296495284132,0,0,1,0.940125,size,0
s202,learn,186,L17,learn,0.134249672778992,0.665358110318393,0,1,0,1.04012,size,0
s202,learn,187,L8,learn,1.1443518165071,0.928950000151332,0,0,1,0.771235,size,0
s202,learn,188,L4,learn,-3.6443518165071,-0.678950000151332,1,1,1,1.71125,size,0
s202,learn,189,L13,learn,-2.63424967277899,-0.415358110318393,1,1,1,0.587445,size,0
s202,learn,190,L5,learn,1.53805215285124,3.9153889577802,1,0,0,0.857415,size,0
s202,learn,191,L6,learn,-4.03805215285124,-3.6653889577802,0,0,1,1.0492,size,0
s202,learn,192,L15,learn,-1.55572178563359,1.13570168915801,1,1,1,1.11182,size,0
s202,learn,193,L14,learn,-0.944278214366407,-0.885701689158013,0,1,0,1.73744,size,0
s202,learn,194,L16,learn,-4.32525809607953,-4.49224278073692,0,0,1,1.536875,size,0
s202,learn,195,L1,learn,-1.87481181428957,-1.78279251880948,0,0,1,0.960075,size,0
s202,learn,196,L18,learn,3.05634619548501,2.73355920733567,0,1,0,1.670925,size,0
s202,learn,197,L12,learn,0.88210011039243,4.02146347623162,1,1,1,1.57225,size,0
s202,learn,198,L10,learn,1.82525809607953,4.74224278073692,1,1,1,1.960285,size,0
s202,learn,199,L9,learn,-5.55634619548501,-2.48355920733567,1,0,0,1.205735,size,0
s202,learn,200,L19,learn,-0.62518818571043,2.03279251880948,1,1,1,1.390825,size,0
s202,learn,201,L17,learn,0.134249672778992,0.665358110318393,0,1,0,0.991325,size,0
s202,learn,202,L19,learn,-0.62518818571043,2.03279251880948,1,1,1,3.291175,size,0
s202,learn,203,L13,learn,-2.63424967277899,-0.415358110318393,1,1,1,2.00444,size,0
s202,learn,204,L5,learn,1.53805215285124,3.9153889577802,1,1,1,1.65451,size,0
s202,learn,205,L16,learn,-4.32525809607953,-4.49224278073692,0,0,1,1.092225,size,0
s202,learn,206,L3,learn,5.44104694192171,5.74675715206952,0,0,1,0.94847,size,0
s202,learn,207,L9,learn,-5.55634619548501,-2.48355920733567,1,1,1,1.638365,size,0
s202,learn,208,L6,learn,-4.03805215285124,-3.6653889577802,0,0,1,1.05403,size,0
s202,learn,209,L18,learn,3.05634619548501,2.73355920733567,0,1,0,1.3781,size,0
s202,learn,210,L8,learn,1.1443518165071,0.928950000151332,0,1,0,1.06215,size,0
s202,learn,211,L20,learn,-7.94104694192171,-5.49675715206952,1,1,1,0.70875,size,0
s202,learn,212,L4,learn,-3.6443518165071,-0.678950000151332,1,1,1,1.1168,size,0
s202,learn,213,L10,learn,1.82525809607953,4.74224278073692,1,1,1,1.65054,size,0
s202,learn,214,L12,learn,0.88210011039243,4.02146347623162,1,1,1,0.53079,size,0
s202,learn,215,L7,learn,-3.38210011039243,-3.77146347623162,0,0,1,1.088665,size,0
s202,learn,216,L14,learn,-0.944278214366407,-0.885701689158013,0,0,1,0.74468,size,0
s202,learn,217,L1,learn,-1.87481181428957,-1.78279251880948,0,0,1,0.673225,size,0
s202,learn,218,L15,learn,-1.55572178563359,1.13570168915801,1,1,1,0.93233,size,0
s202,learn,219,L11,learn,-7.28850576128638,-4.27296495284132,1,1,1,0.657715,size,0
s202,learn,220,L2,learn,4.78850576128638,4.52296495284132,0,0,1,1.203475,size,0
s202,learn,221,L12,learn,0.88210011039243,4.02146347623162,1,0,0,0.915685,size,0
s202,learn,222,L11,learn,-7.28850576128638,-4.27296495284132,1,1,1,0.63696,size,0
s202,learn,223,L18,learn,3.05634619548501,2.73355920733567,0,0,1,1.514055,size,0
s202,learn,224,L10,learn,1.82525809607953,4.74224278073692,1,1,1,0.89552,size,0
s202,learn,225,L3,learn,5.44104694192171,5.74675715206952,0,0,1,0.83088,size,0
s202,learn,226,L6,learn,-4.03805215285124,-3.6653889577802,0,1,0,2.17179,size,0
s202,learn,227,L1,learn,-1.87481181428957,-1.78279251880948,0,0,1,0.97852,size,0
s202,learn,228,L2,learn,4.78850576128638,4.52296495284132,0,0,1,0.83951,size,0
s202,learn,229,L14,learn,-0.944278214366407,-0.885701689158013,0,0,1,1.82447,size,0
s202,learn,230,L9,learn,-5.55634619548501,-2.48355920733567,1,1,1,0.92127,size,0
s202,learn,231,L13,learn,-2.63424967277899,-0.415358110318393,1,0,0,0.79941,size,0
s202,learn,232,L19,learn,-0.62518818571043,2.03279251880948,1,1,1,0.954085,size,0
s202,learn,233,L4,learn,-3.6443518165071,-0.678950000151332,1,0,0,1.590385,size,0
s202,learn,234,L15,learn,-1.55572178563359,1.13570168915801,1,1,1,1.17825,size,0
s202,learn,235,L5,learn,1.53805215285124,3.9153889577802,1,1,1,3.141075,size,0
s202,learn,236,L7,learn,-3.38210011039243,-3.77146347623162,0,0,1,2.345675,size,0
s202,learn,237,L16,learn,-4.32525809607953,-4.49224278073692,0,1,0,0.908935,size,0
s202,learn,238,L8,learn,1.1443518165071,0.928950000151332,0,1,0,1.38942,size,0
s202,learn,239,L20,learn,-7.94104694192171,-5.49675715206952,1,1,1,0.62397,size,0
s202,learn,240,L17,learn,0.134249672778992,0.665358110318393,0,0,1,1.97252,size,0
s202,learn,241,L11,learn,-7.28850576128638,-4.27296495284132,1,1,1,1.04432,size,0
s202,learn,242,L10,learn,1.82525809607953,4.74224278073692,1,1,1,1.17067,size,0
s202,learn,243,L5,learn,1.53805215285124,3.9153889577802,1,1,1,0.659455,size,0
s202,learn,244,L17,learn,0.134249672778992,0.665358110318393,0,1,0,0.924555,size,0
s202,learn,245,L8,learn,1.1443518165071,0.928950000151332,0,0,1,0.938865,size,0
s202,learn,246,L1,learn,-1.87481181428957,-1.78279251880948,0,0,1,1.873015,size,0
s202,learn,247,L9,learn,-5.55634619548501,-2.48355920733567,1,1,1,1.191605,size,0
s202,learn,248,L15,learn,-1.55572178563359,1.13570168915801,1,1,1,1.4251,size,0
s202,learn,249,L4,learn,-3.6443518165071,-0.678950000151332,1,0,0,2.40469,size,0
s202,learn,250,L7,learn,-3.38210011039243,-3.77146347623162,0,0,1,1.38917,size,0
s202,learn,251,L14,learn,-0.944278214366407,-0.885701689158013,0,0,1,1.83723,size,0
s202,learn,252,L19,learn,-0.62518818571043,2.03279251880948,1,1,1,1.2259,size,0
s202,learn,253,L18,learn,3.05634619548501,2.73355920733567,0,0,1,0.79029,size,0
s202,learn,254,L20,learn,-7.94104694192171,-5.49675715206952,1,1,1,0.67868,size,0
s202,learn,255,L16,learn,-4.32525809607953,-4.49224278073692,0,1,0,1.120565,size,0
s202,learn,256,L12,learn,0.88210011039243,4.02146347623162,1,1,1,0.84546,size,0
s202,learn,257,L2,learn,4.78850576128638,4.52296495284132,0,0,1,0.52206,size,0
s202,learn,258,L6,learn,-4.03805215285124,-3.6653889577802,0,0,1,1.18794,size,0
s202,learn,259,L3,learn,5.44104694192171,5.74675715206952,0,0,1,0.606285,size,0
s202,learn,260,L13,learn,-2.63424967277899,-0.415358110318393,1,1,1,2.11154,size,0
s202,learn,261,L17,learn,0.134249672778992,0.665358110318393,0,1,0,1.27116,size,0
s202,learn,262,L16,learn,-4.32525809607953,-4.49224278073692,0,0,1,1.15712,size,0
s202,learn,263,L9,learn,-5.55634619548501,-2.48355920733567,1,1,1,0.89193,size,0
s202,learn,264,L11,learn,-7.28850576128638,-4.27296495284132,1,1,1,0.42602,size,0
s202,learn,265,L1,learn,-1.87481181428957,-1.78279251880948,0,0,1,1.94691,size,0
s202,learn,266,L14,learn,-0.944278214366407,-0.885701689158013,0,0,1,0.86438,size,0
s202,learn,267,L20,learn,-7.94104694192171,-5.49675715206952,1,1,1,0.52857,size,0
s202,learn,268,L8,learn,1.1443518165071,0.928950000151332,0,1,0,0.926425,size,0
s202,learn,269,L6,learn,-4.03805215285124,-3.6653889577802,0,0,1,1.08704,size,0
s202,learn,270,L5,learn,1.53805215285124,3.9153889577802,1,1,1,0.972575,size,0
s202,learn,271,L7,learn,-3.38210011039243,-3.77146347623162,0,0,1,2.07875,size,0
s202,learn,272,L15,learn,-1.55572178563359,1.13570168915801,1,1,1,1.30611,size,0
s202,learn,273,L12,learn,0.88210011039243,4.02146347623162,1,1,1,1.10407,size,0
s202,learn,274,L4,learn,-3.6443518165071,-0.678950000151332,1,0,0,1.604615,size,0
s202,learn,275,L13,learn,-2.63424967277899,-0.415358110318393,1,1,1,1.32378,size,0
s202,learn,276,L18,learn,3.05634619548501,2.73355920733567,0,0,1,1.022125,size,0
s202,learn,277,L10,learn,1.82525809607953,4.74224278073692,1,0,0,1.444815,size,0
s202,learn,278,L19,learn,-0.62518818571043,2.03279251880948,1,1,1,1.02367,size,0
s202,learn,279,L2,learn,4.78850576128638,4.52296495284132,0,0,1,0.80821,size,0
s202,learn,280,L3,learn,5.44104694192171,5.74675715206952,0,0,1,0.658085,size,0
s202,learn,281,L9,learn,-5.55634619548501,-2.48355920733567,1,1,1,1.02615,size,0
s202,learn,282,L1,learn,-1.87481181428957,-1.78279251880948,0,0,1,0.75667,size,0
s202,learn,283,L6,learn,-4.03805215285124,-3.6653889577802,0,1,0,1.26452,size,0
s202,learn,284,L10,learn,1.82525809607953,4.74224278073692,1,1,1,1.97533,size,0
s202,learn,285,L2,learn,4.78850576128638,4.52296495284132,0,0,1,0.643775,size,0
s202,learn,286,L15,learn,-1.55572178563359,1.13570168915801,1,1,1,0.957145,size,0
s202,learn,287,L11,learn,-7.28850576128638,-4.27296495284132,1,1,1,0.545325,size,0
s202,learn,288,L8,learn,1.1443518165071,0.928950000151332,0,1,0,1.15374,size,0
s202,learn,289,L17,learn,0.134249672778992,0.665358110318393,0,1,0,0.899095,size,0
s202,learn,290,L19,learn,-0.62518818571043,2.03279251880948,1,0,0,0.75408,size,0
s202,learn,291,L7,learn,-3.38210011039243,-3.77146347623162,0,0,1,1.09465,size,0
s202,learn,292,L4,learn,-3.6443518165071,-0.678950000151332,1,0,0,0.66102,size,0
s202,learn,293,L3,learn,5.44104694192171,5.74675715206952,0,0,1,0.73835,size,0
s202,learn,294,L12,learn,0.88210011039243,4.02146347623162,1,1,1,1.67554,size,0
s202,learn,295,L13,learn,-2.63424967277899,-0.415358110318393,1,0,0,1.03708,size,0
s202,learn,296,L18,learn,3.05634619548501,2.73355920733567,0,0,1,1.70383,size,0
s202,learn,297,L20,learn,-7.94104694192171,-5.49675715206952,1,1,1,0.77184,size,0
s202,learn,298,L16,learn,-4.32525809607953,-4.49224278073692,0,0,1,1.214,size,0
s202,learn,299,L5,learn,1.53805215285124,3.9153889577802,1,1,1,1.160545,size,0
s202,learn,300,L14,learn,-0.944278214366407,-0.885701689158013,0,1,0,1.82915,size,0
s202,learn,301,L7,learn,-3.38210011039243,-3.77146347623162,0,0,1,1.60537,size,0
s202,learn,302,L2,learn,4.78850576128638,4.52296495284132,0,0,1,0.82074,size,0
s202,learn,303,L6,learn,-4.03805215285124,-3.6653889577802,0,1,0,1.793845,size,0
s202,learn,304,L1,learn,-1.87481181428957,-1.78279251880948,0,0,1,1.038355,size,0
s202,learn,305,L9,learn,-5.55634619548501,-2.48355920733567,1,1,1,0.89251,size,0
s202,learn,306,L14,learn,-0.944278214366407,-0.885701689158013,0,0,1,0.99677,size,0
s202,learn,307,L13,learn,-2.63424967277899,-0.415358110318393,1,0,0,2.230935,size,0
s202,learn,308,L10,learn,1.82525809607953,4.74224278073692,1,1,1,1.00323,size,0
s202,learn,309,L18,learn,3.05634619548501,2.73355920733567,0,1,0,1.04408,size,0
s202,learn,310,L19,learn,-0.62518818571043,2.03279251880948,1,1,1,0.77494,size,0
s202,learn,311,L17,learn,0.134249672778992,0.665358110318393,0,1,0,1.31202,size,0
s202,learn,312,L12,learn,0.88210011039243,4.02146347623162,1,1,1,1.046375,size,0
s202,learn,313,L8,learn,1.1443518165071,0.928950000151332,0,0,1,1.056295,size,0
s202,learn,314,L4,learn,-3.6443518165071,-0.678950000151332,1,0,0,1.288225,size,0
s202,learn,315,L15,learn,-1.55572178563359,1.13570168915801,1,1,1,1.56501,size,0
s202,learn,316,L3,learn,5.44104694192171,5.74675715206952,0,0,1,0.75517,size,0
s202,learn,317,L20,learn,-7.94104694192171,-5.49675715206952,1,1,1,0.50574,size,0
s202,learn,318,L16,learn,-4.32525809607953,-4.49224278073692,0,0,1,1.029195,size,0
s202,learn,319,L5,learn,1.53805215285124,3.9153889577802,1,1,1,0.955295,size,0
s202,learn,320,L11,learn,-7.28850576128638,-4.27296495284132,1,1,1,0.924025,size,0
s202,learn,321,L19,learn,-0.62518818571043,2.03279251880948,1,1,1,1.339095,size,0
s202,learn,322,L2,learn,4.78850576128638,4.52296495284132,0,0,1,0.79064,size,0
s202,learn,323,L20,learn,-7.94104694192171,-5.49675715206952,1,1,1,0.522375,size,0
s202,learn,324,L18,learn,3.05634619548501,2.73355920733567,0,0,1,1.4571,size,0
s202,learn,325,L6,learn,-4.03805215285124,-3.6653889577802,0,0,1,1.18697,size,0
s202,learn,326,L17,learn,0.134249672778992,0.665358110318393,0,1,0,2.27124,size,0
s202,learn,327,L4,learn,-3.6443518165071,-0.678950000151332,1,0,0,3.404975,size,0
s202,learn,328,L15,learn,-1.55572178563359,1.13570168915801,1,1,1,1.094935,size,0
s202,learn,329,L16,learn,-4.32525809607953,-4.49224278073692,0,0,1,1.35711,size,0
s202,learn,330,L14,learn,-0.944278214366407,-0.885701689158013,0,0,1,1.22559,size,0
s202,learn,331,L1,learn,-1.87481181428957,-1.78279251880948,0,0,1,0.59055,size,0
s202,learn,332,L10,learn,1.82525809607953,4.74224278073692,1,1,1,1.00767,size,0
s202,learn,333,L11,learn,-7.28850576128638,-4.27296495284132,1,1,1,0.641355,size,0
s202,learn,334,L5,learn,1.53805215285124,3.9153889577802,1,1,1,1.513485,size,0
s202,learn,335,L12,learn,0.88210011039243,4.02146347623162,1,1,1,0.43229,size,0
s202,learn,336,L9,learn,-5.55634619548501,-2.48355920733567,1,1,1,1.090215,size,0
s202,learn,337,L13,learn,-2.63424967277899,-0.415358110318393,1,0,0,0.664175,size,0
s202,learn,338,L3,learn,5.44104694192171,5.74675715206952,0,0,1,0.656515,size,0
s202,learn,339,L8,learn,1.1443518165071,0.928950000151332,0,1,0,0.94373,size,0
s202,learn,340,L7,learn,-3.38210011039243,-3.77146347623162,0,0,1,1.124845,size,0
s202,learn,341,L16,learn,-4.32525809607953,-4.49224278073692,0,0,1,0.48207,size,0
s202,learn,342,L6,learn,-4.03805215285124,-3.6653889577802,0,0,1,0.420315,size,0
s202,learn,343,L14,learn,-0.944278214366407,-0.885701689158013,0,1,0,2.41314,size,0
s202,learn,344,L8,learn,1.1443518165071,0.928950000151332,0,1,0,0.937335,size,0
s202,learn,345,L18,learn,3.05634619548501,2.73355920733567,0,0,1,1.429045,size,0
s202,learn,346,L15,learn,-1.55572178563359,1.13570168915801,1,1,1,0.8051,size,0
s202,learn,347,L4,learn,-3.6443518165071,-0.678950000151332,1,1,1,2.12315,size,0
s202,learn,348,L13,learn,-2.63424967277899,-0.415358110318393,1,1,1,0.937695,size,0
s202,learn,349,L17,learn,0.134249672778992,0.665358110318393,0,1,0,1.071075,size,0
s202,learn,350,L10,learn,1.82525809607953,4.74224278073692,1,1,1,1.020845,size,0
s202,learn,351,L1,learn,-1.87481181428957,-1.78279251880948,0,0,1,2.112195,size,0
s202,learn,352,L3,learn,5.44104694192171,5.74675715206952,0,0,1,0.838715,size,0
s202,learn,353,L5,learn,1.53805215285124,3.9153889577802,1,0,0,1.432855,size,0
s202,learn,354,L11,learn,-7.28850576128638,-4.27296495284132,1,1,1,0.64215,size,0
s202,learn,355,L7,learn,-3.38210011039243,-3.77146347623162,0,0,1,1.33994,size,0
s202,learn,356,L12,learn,0.88210011039243,4.02146347623162,1,1,1,0.84056,size,0
s202,learn,357,L20,learn,-7.94104694192171,-5.49675715206952,1,1,1,0.63172,size,0
s202,learn,358,L19,learn,-0.62518818571043,2.03279251880948,1,1,1,0.85447,size,0
s202,learn,359,L2,learn,4.78850576128638,4.52296495284132,0,0,1,0.78783,size,0
s202,learn,360,L9,learn,-5.55634619548501,-2.48355920733567,1,1,1,1.174375,size,0
s202,learn,361,L14,learn,-0.944278214366407,-0.885701689158013,0,0,1,1.18853,size,0
s202,learn,362,L6,learn,-4.03805215285124,-3.6653889577802,0,0,1,2.7732,size,0
s202,learn,363,L18,learn,3.05634619548501,2.73355920733567,0,0,1,1.856765,size,0
s202,learn,364,L2,learn,4.78850576128638,4.52296495284132,0,0,1,0.70636,size,0
s202,learn,365,L5,learn,1.53805215285124,3.9153889577802,1,1,1,1.047015,size,0
s202,learn,366,L16,learn,-4.32525809607953,-4.49224278073692,0,0,1,1.030965,size,0
s202,learn,367,L7,learn,-3.38210011039243,-3.77146347623162,0,0,1,0.889855,size,0
s202,learn,368,L1,learn,-1.87481181428957,-1.78279251880948,0,1,0,0.912255,size,0
s202,learn,369,L10,learn,1.82525809607953,4.74224278073692,1,1,1,0.925325,size,0
s202,learn,370,L9,learn,-5.55634619548501,-2.48355920733567,1,1,1,1.27683,size,0
s202,learn,371,L19,learn,-0.62518818571043,2.03279251880948,1,1,1,0.86059,size,0
s202,learn,372,L12,learn,0.88210011039243,4.02146347623162,1,1,1,1.55633,size,0
s202,learn,373,L15,learn,-1.55572178563359,1.13570168915801,1,1,1,1.08254,size,0
s202,learn,374,L20,learn,-7.94104694192171,-5.49675715206952,1,1,1,0.657985,size,0
s202,learn,375,L8,learn,1.1443518165071,0.928950000151332,0,0,1,2.074195,size,0
s202,learn,376,L11,learn,-7.28850576128638,-4.27296495284132,1,1,1,1.03855,size,0
s202,learn,377,L4,learn,-3.6443518165071,-0.678950000151332,1,0,0,1.839275,size,0
s202,learn,378,L13,learn,-2.63424967277899,-0.415358110318393,1,1,1,1.765825,size,0
s202,learn,379,L17,learn,0.134249672778992,0.665358110318393,0,1,0,2.771365,size,0
s202,learn,380,L3,learn,5.44104694192171,5.74675715206952,0,0,1,0.75333,size,0
s202,learn,381,L5,learn,1.53805215285124,3.9153889577802,1,1,1,1.408415,size,0
s202,learn,382,L2,learn,4.78850576128638,4.52296495284132,0,0,1,0.610225,size,0
s202,learn,383,L15,learn,-1.55572178563359,1.13570168915801,1,1,1,1.08728,size,0
s202,learn,384,L4,learn,-3.6443518165071,-0.678950000151332,1,0,0,1.39063,size,0
s202,learn,385,L19,learn,-0.62518818571043,2.03279251880948,1,1,1,1.3713,size,0
s202,learn,386,L9,learn,-5.55634619548501,-2.48355920733567,1,1,1,1.120835,size,0
s202,learn,387,L17,learn,0.134249672778992,0.665358110318393,0,1,0,0.93953,size,0
s202,learn,388,L3,learn,5.44104694192171,5.74675715206952,0,0,1,0.755,size,0
s202,learn,389,L18,learn,3.05634619548501,2.73355920733567,0,0,1,1.188995,size,0
s202,learn,390,L16,learn,-4.32525809607953,-4.49224278073692,0,0,1,1.38891,size,0
s202,learn,391,L6,learn,-4.03805215285124,-3.6653889577802,0,0,1,0.52723,size,0
s202,learn,392,L10,learn,1.82525809607953,4.74224278073692,1,1,1,1.007445,size,0
s202,learn,393,L8,learn,1.1443518165071,0.928950000151332,0,0,1,1.303365,size,0
s202,learn,394,L14,learn,-0.944278214366407,-0.885701689158013,0,0,1,1.479015,size,0
s202,learn,395,L13,learn,-2.63424967277899,-0.415358110318393,1,0,0,0.54361,size,0
s202,learn,396,L1,learn,-1.87481181428957,-1.78279251880948,0,1,0,1.47541,size,0
s202,learn,397,L20,learn,-7.94104694192171,-5.49675715206952,1,1,1,0.671355,size,0
s202,learn,398,L12,learn,0.88210011039243,4.02146347623162,1,1,1,1.338515,size,0
s202,learn,399,L11,learn,-7.28850576128638,-4.27296495284132,1,1,1,0.94494,size,0
s202,learn,400,L7,learn,-3.38210011039243,-3.77146347623162,0,0,1,1.462035,size,0
s202,learn,401,L12,learn,0.88210011039243,4.02146347623162,1,1,1,1.17284,size,0
s202,learn,402,L14,learn,-0.944278214366407,-0.885701689158013,0,0,1,1.729875,size,0
s202,learn,403,L7,learn,-3.38210011039243,-3.77146347623162,0,0,1,1.840105,size,0
s202,learn,404,L13,learn,-2.63424967277899,-0.415358110318393,1,0,0,3.06463,size,0
s202,learn,405,L2,learn,4.78850576128638,4.52296495284132,0,0,1,0.73792,size,0
s202,learn,406,L1,learn,-1.87481181428957,-1.78279251880948,0,0,1,1.380825,size,0
s202,learn,407,L18,learn,3.05634619548501,2.73355920733567,0,0,1,1.241325,size,0
s202,learn,408,L9,learn,-5.55634619548501,-2.48355920733567,1,1,1,0.538015,size,0
s202,learn,409,L3,learn,5.44104694192171,5.74675715206952,0,0,1,0.582555,size,0
s202,learn,410,L5,learn,1.53805215285124,3.9153889577802,1,1,1,0.993965,size,0
s202,learn,411,L8,learn,1.1443518165071,0.928950000151332,0,1,0,0.87065,size,0
s202,learn,412,L19,learn,-0.62518818571043,2.03279251880948,1,1,1,0.990135,size,0
s202,learn,413,L11,learn,-7.28850576128638,-4.27296495284132,1,1,1,0.614405,size,0
s202,learn,414,L4,learn,-3.6443518165071,-0.678950000151332,1,0,0,1.55458,size,0
s202,learn,415,L16,learn,-4.32525809607953,-4.49224278073692,0,1,0,0.64662,size,0
s202,learn,416,L17,learn,0.134249672778992,0.665358110318393,0,1,0,1.206815,size,0
s202,learn,417,L20,learn,-7.94104694192171,-5.49675715206952,1,1,1,0.641175,size,0
s202,learn,418,L6,learn,-4.03805215285124,-3.6653889577802,0,0,1,1.36982,size,0
s202,learn,419,L10,learn,1.82525809607953,4.74224278073692,1,0,0,2.092205,size,0
s202,learn,420,L15,learn,-1.55572178563359,1.13570168915801,1,1,1,0.757205,size,0
s202,learn,421,L19,learn,-0.62518818571043,2.03279251880948,1,1,1,0.85598,size,0
s202,learn,422,L11,learn,-7.28850576128638,-4.27296495284132,1,1,1,0.54338,size,0
s202,learn,423,L17,learn,0.134249672778992,0.665358110318393,0,1,0,1.172695,size,0
s202,learn,424,L8,learn,1.1443518165071,0.928950000151332,0,0,1,1.08962,size,0
s202,learn,425,L10,learn,1.82525809607953,4.74224278073692,1,1,1,0.84074,size,0
s202,learn,426,L4,learn,-3.6443518165071,-0.678950000151332,1,0,0,1.171165,size,0
s202,learn,427,L5,learn,1.53805215285124,3.9153889577802,1,1,1,0.97329,size,0
s202,learn,428,L2,learn,4.78850576128638,4.52296495284132,0,0,1,0.671595,size,0
s202,learn,429,L15,learn,-1.55572178563359,1.13570168915801,1,1,1,1.06353,size,0
s202,learn,430,L1,learn,-1.87481181428957,-1.78279251880948,0,0,1,1.11177,size,0
s202,learn,431,L12,learn,0.88210011039243,4.02146347623162,1,1,1,1.461855,size,0
s202,learn,432,L18,learn,3.05634619548501,2.73355920733567,0,0,1,0.60669,size,0
s202,learn,433,L13,learn,-2.63424967277899,-0.415358110318393,1,1,1,1.59204,size,0
s202,learn,434,L3,learn,5.44104694192171,5.74675715206952,0,0,1,0.7714,size,0
s202,learn,435,L14,learn,-0.944278214366407,-0.885701689158013,0,1,0,1.14204,size,0
s202,learn,436,L20,learn,-7.94104694192171,-5.49675715206952,1,1,1,0.65618,size,0
s202,learn,437,L7,learn,-3.38210011039243,-3.77146347623162,0,1,0,1.77171,size,0
s202,learn,438,L6,learn,-4.03805215285124,-3.6653889577802,0,1,0,0.872525,size,0
s202,learn,439,L9,learn,-5.55634619548501,-2.48355920733567,1,1,1,0.77146,size,0
s202,learn,440,L16,learn,-4.32525809607953,-4.49224278073692,0,0,1,0.69758,size,0
s202,learn,441,L19,learn,-0.62518818571043,2.03279251880948,1,1,1,0.92899,size,0
s202,learn,442,L17,learn,0.134249672778992,0.665358110318393,0,1,0,1.139035,size,0
s202,learn,443,L10,learn,1.82525809607953,4.74224278073692,1,1,1,1.348015,size,0
s202,learn,444,L15,learn,-1.55572178563359,1.13570168915801,1,0,0,1.220595,size,0
s202,learn,445,L3,learn,5.44104694192171,5.74675715206952,0,0,1,0.65389,size,0
